Condition,bern_param_play,bern_param_not_play,dP,impact,avec_key,sans_key,dom_key,ext_key,avec_pos_text,sans_pos_text,dom_pos_text,ext_pos_text,avec_pos_image,sans_pos_image,dom_pos_image,ext_pos_image,trainingRun.thisRepN,trainingRun.thisTrialN,trainingRun.thisN,trainingRun.thisIndex,trainingBlocks.thisRepN,trainingBlocks.thisTrialN,trainingBlocks.thisN,trainingBlocks.thisIndex,firstRun.thisRepN,firstRun.thisTrialN,firstRun.thisN,firstRun.thisIndex,firstBlocks.thisRepN,firstBlocks.thisTrialN,firstBlocks.thisN,firstBlocks.thisIndex,age.started,respAge.started,gender.started,genderResp1.started,student.started,studentResp.started,mood.started,moodResp.started,mouse.started,nextButton.started,respAge.response,respAge.rt,genderResp1.response,genderResp1.rt,studentResp.response,studentResp.rt,moodResp.response,moodResp.rt,mouse.x,mouse.y,mouse.leftButton,mouse.midButton,mouse.rightButton,mouse.clicked_name,text_instr.started,key_resp_4.started,key_resp_4.keys,key_resp_4.rt,text_instr_2.started,key_resp_5.started,key_resp_5.keys,key_resp_5.rt,text_instr_3.started,key_resp_7.started,key_resp_7.keys,key_resp_7.rt,text_instr_13.started,key_resp_8.started,image_avec.started,image_sans.started,image_victoire.started,image_defaite.started,text_avec.started,text_sans.started,text_victoire.started,text_defaite.started,key_resp_8.keys,key_resp_8.rt,text_3.started,text_3.stopped,text_4.started,cross.started,cross.stopped,key_resp_training.started,avec_training.started,sans_training.started,nombre_match_training.started,text_question.started,cross_training.started,avec_cues.started,sans_cues.started,joueur.started,question_mark_training.started,key_resp_training.keys,key_resp_training.corr,key_resp_training.rt,text_question_outcome.started,nombre_match_training_outcome.started,text_avec_fb.started,text_sans_fb.started,avec_feedback.started,sans_feedback.started,cross_outcome_training.started,joueur_feedback.started,outcome_feedback.started,text_resultat.started,cross_outcome_training.stopped,outcome_feedback.stopped,text_resultat.stopped,attractiveness.started,text_question_1.started,validate.started,mouse_15.started,slider_recommandation.started,text_recommandation.started,attractiveness.response,attractiveness.rt,mouse_15.x,mouse_15.y,mouse_15.leftButton,mouse_15.midButton,mouse_15.rightButton,mouse_15.time,mouse_15.clicked_name,slider_recommandation.response,slider_recommandation.rt,text.started,key_resp_9.started,key_resp_9.keys,key_resp_9.rt,text_2.started,text_2.stopped,text_4.stopped,participant,session,group,date,expName,psychopyVersion,frameRate,
,,,,,,,,,,,,,,,,,,,,,,,,,,,,,,,,,23.460584790998837,23.460584790998837,23.460584790998837,23.460584790998837,23.460584790998837,23.460584790998837,23.460584790998837,23.460584790998837,0.003059749993553851,47.66808991599828,3.0,8.13704079099989,1.0,16.119471375001012,1.0,18.80195320799976,1.9984446691033517,24.238382915995317,0.05132591958939264,-0.4067579127459367,1,0,0,nextButton,,,,,,,,,,,,,,,,,,,,,,,,,,,,,,,,,,,,,,,,,,,,,,,,,,,,,,,,,,,,,,,,,,,,,,,,,,,,,,,,930202,001,B,2023-07-04_16h22.20.879,vb_task_exp_1,2022.2.5,None,
,,,,,,,,,,,,,,,,,,,,,,,,,,,,,,,,,,,,,,,,,,,,,,,,,,,,,,,,,48.86041616599687,48.86041616599687,space,6.287438750005094,,,,,,,,,,,,,,,,,,,,,,,,,,,,,,,,,,,,,,,,,,,,,,,,,,,,,,,,,,,,,,,,,,,,,,,,,,,,930202,001,B,2023-07-04_16h22.20.879,vb_task_exp_1,2022.2.5,None,
,,,,,,,,,,,,,,,,,,,,,,,,,,,,,,,,,,,,,,,,,,,,,,,,,,,,,,,,,,,,,55.19100837499718,55.19100837499718,space,5.448466792004183,,,,,,,,,,,,,,,,,,,,,,,,,,,,,,,,,,,,,,,,,,,,,,,,,,,,,,,,,,,,,,,,,,,,,,,,930202,001,B,2023-07-04_16h22.20.879,vb_task_exp_1,2022.2.5,None,
,,,,,,,,,,,,,,,,,,,,,,,,,,,,,,,,,,,,,,,,,,,,,,,,,,,,,,,,,,,,,,,,,60.67177699999593,60.67177699999593,space,89.82019737500377,,,,,,,,,,,,,,,,,,,,,,,,,,,,,,,,,,,,,,,,,,,,,,,,,,,,,,,,,,,,,,,,,,,,930202,001,B,2023-07-04_16h22.20.879,vb_task_exp_1,2022.2.5,None,
,,,,,,,,,,,,,,,,,,,,,,,,,,,,,,,,,,,,,,,,,,,,,,,,,,,,,,,,,,,,,,,,,,,,,150.51048674999765,150.51048674999765,150.51048674999765,150.51048674999765,150.51048674999765,150.51048674999765,150.51048674999765,150.51048674999765,150.51048674999765,150.51048674999765,space,93.44473075000133,,,,,,,,,,,,,,,,,,,,,,,,,,,,,,,,,,,,,,,,,,,,,,,,,,,,,,,,930202,001,B,2023-07-04_16h22.20.879,vb_task_exp_1,2022.2.5,None,
,,,,,,,,,,,,,,,,,,,,,,,,,,,,,,,,,,,,,,,,,,,,,,,,,,,,,,,,,,,,,,,,,,,,,283.3837381659978,283.3837381659978,283.3837381659978,283.3837381659978,283.3837381659978,283.3837381659978,283.3837381659978,283.3837381659978,283.3837381659978,283.3837381659978,space,41.265013416996226,243.97259587499866,245.99651008300134,245.99651008300134,270.76688241599913,271.04148108299705,271.04148108299705,271.04148108299705,271.04148108299705,271.04148108299705,271.04148108299705,271.04148108299705,271.04148108299705,271.04148108299705,271.04148108299705,273.0208904579995,right,0,2.087237625004491,273.1702402910014,273.1702402910014,273.1702402910014,273.1702402910014,273.1702402910014,273.1702402910014,273.1702402910014,273.1702402910014,273.66506474999915,273.66506474999915,273.6971020829951,275.13544991600065,275.13544991600065,275.2007067079976,275.2007067079976,275.2007067079976,0.015163709002081305,275.2007067079976,275.2007067079976,None,None,"[0.0504704875962361, 0.43627031650983744]","[-0.29555175363558595, -0.2887082976903336]","[1, 1]","[0, 0]","[0, 0]","[3.037804125000548, 4.333087625003827]",['validate'],1,3.1715661249982077,279.49398537499656,279.49398537499656,space,1.880165875001694,281.3858219159956,283.3837381659978,,930202,001,B,2023-07-04_16h22.20.879,vb_task_exp_1,2022.2.5,None,
3,0.2,0.8,-0.6,-6,left,right,down,up,"(-0.2,-0.1)","(0.2,-0.1)","(0,-0.3)","(0,0.1)","(-0.2,0.0)","(0.2,0.0)","(0.0, -0.2)","(0.0, 0.2)",,,,,,,,,0,0,0,2,0,0,0,0,,,,,,,,,,,,,,,,,,,,,,,,,,,,,,,,,,,,,,,,,,,,,,,,,,,324.67709579099756,326.68778604100225,327.0119542079992,327.0119542079992,327.0119542079992,327.0119542079992,327.0119542079992,327.0119542079992,327.0119542079992,327.0119542079992,327.0119542079992,327.0119542079992,328.98479566600145,right,0,2.0581224580018898,329.1072863329973,329.1072863329973,329.1072863329973,329.1072863329973,329.1072863329973,329.1072863329973,329.1072863329973,329.1072863329973,329.59284437500173,329.59284437500173,329.62495054100145,331.06294974999764,331.06294974999764,,,,,,,,,,,,,,,,,,,,,,,,,930202,001,B,2023-07-04_16h22.20.879,vb_task_exp_1,2022.2.5,None,
3,0.2,0.8,-0.6,-6,left,right,down,up,"(-0.2,-0.1)","(0.2,-0.1)","(0,-0.3)","(0,0.1)","(-0.2,0.0)","(0.2,0.0)","(0.0, -0.2)","(0.0, 0.2)",,,,,,,,,0,0,0,2,1,0,1,0,,,,,,,,,,,,,,,,,,,,,,,,,,,,,,,,,,,,,,,,,,,,,,,,,,,,331.07794404099695,331.4419443329971,331.4419443329971,331.4419443329971,331.4419443329971,331.4419443329971,331.4419443329971,331.4419443329971,331.4419443329971,331.4419443329971,331.4419443329971,,right,0,1.2207970000017667,332.6930744159981,332.6930744159981,332.6930744159981,332.6930744159981,332.6930744159981,332.6930744159981,332.6930744159981,332.6930744159981,333.18776916599745,333.18776916599745,333.2198258749995,334.65348970799823,334.65348970799823,,,,,,,,,,,,,,,,,,,,,,,,,930202,001,B,2023-07-04_16h22.20.879,vb_task_exp_1,2022.2.5,None,
3,0.2,0.8,-0.6,-6,left,right,down,up,"(-0.2,-0.1)","(0.2,-0.1)","(0,-0.3)","(0,0.1)","(-0.2,0.0)","(0.2,0.0)","(0.0, -0.2)","(0.0, 0.2)",,,,,,,,,0,0,0,2,2,0,2,0,,,,,,,,,,,,,,,,,,,,,,,,,,,,,,,,,,,,,,,,,,,,,,,,,,,,334.66917300000205,335.00140916599776,335.00140916599776,335.00140916599776,335.00140916599776,335.00140916599776,335.00140916599776,335.00140916599776,335.00140916599776,335.00140916599776,335.00140916599776,,left,0,0.6698948340053903,335.7104869159957,335.7104869159957,335.7104869159957,335.7104869159957,335.7104869159957,335.7104869159957,335.7104869159957,335.7104869159957,336.20122224999795,336.20122224999795,336.2318993329973,,,,,,,,,,,,,,,,,,,,,,,,,,,930202,001,B,2023-07-04_16h22.20.879,vb_task_exp_1,2022.2.5,None,
3,0.2,0.8,-0.6,-6,left,right,down,up,"(-0.2,-0.1)","(0.2,-0.1)","(0,-0.3)","(0,0.1)","(-0.2,0.0)","(0.2,0.0)","(0.0, -0.2)","(0.0, 0.2)",,,,,,,,,0,0,0,2,3,0,3,0,,,,,,,,,,,,,,,,,,,,,,,,,,,,,,,,,,,,,,,,,,,,,,,,,,,,337.6937066249957,338.04726854099863,338.04726854099863,338.04726854099863,338.04726854099863,338.04726854099863,338.04726854099863,338.04726854099863,338.04726854099863,338.04726854099863,338.04726854099863,,left,0,0.254906458001642,338.33429016599985,338.33429016599985,338.33429016599985,338.33429016599985,338.33429016599985,338.33429016599985,338.33429016599985,338.33429016599985,338.8290718329954,338.8290718329954,338.861245166001,340.29760866599827,340.29760866599827,,,,,,,,,,,,,,,,,,,,,,,,,930202,001,B,2023-07-04_16h22.20.879,vb_task_exp_1,2022.2.5,None,
3,0.2,0.8,-0.6,-6,left,right,down,up,"(-0.2,-0.1)","(0.2,-0.1)","(0,-0.3)","(0,0.1)","(-0.2,0.0)","(0.2,0.0)","(0.0, -0.2)","(0.0, 0.2)",,,,,,,,,0,0,0,2,4,0,4,0,,,,,,,,,,,,,,,,,,,,,,,,,,,,,,,,,,,,,,,,,,,,,,,,,,,,340.319836415998,340.666909915999,340.666909915999,340.666909915999,340.666909915999,340.666909915999,340.666909915999,340.666909915999,340.666909915999,340.666909915999,340.666909915999,,left,0,0.8221950419974746,341.519720915996,341.519720915996,341.519720915996,341.519720915996,341.519720915996,341.519720915996,341.519720915996,341.519720915996,342.0065912909995,342.0065912909995,342.03862454099726,,,,,,,,,,,,,,,,,,,,,,,,,,,930202,001,B,2023-07-04_16h22.20.879,vb_task_exp_1,2022.2.5,None,
3,0.2,0.8,-0.6,-6,left,right,down,up,"(-0.2,-0.1)","(0.2,-0.1)","(0,-0.3)","(0,0.1)","(-0.2,0.0)","(0.2,0.0)","(0.0, -0.2)","(0.0, 0.2)",,,,,,,,,0,0,0,2,5,0,5,0,,,,,,,,,,,,,,,,,,,,,,,,,,,,,,,,,,,,,,,,,,,,,,,,,,,,343.50246070799767,343.8404926250005,343.8404926250005,343.8404926250005,343.8404926250005,343.8404926250005,343.8404926250005,343.8404926250005,343.8404926250005,343.8404926250005,343.8404926250005,,right,0,1.6068189580037142,345.4820550410004,345.4820550410004,345.4820550410004,345.4820550410004,345.4820550410004,345.4820550410004,345.4820550410004,345.4820550410004,345.97293362500204,345.97293362500204,346.0047286659974,,,,,,,,,,,,,,,,,,,,,,,,,,,930202,001,B,2023-07-04_16h22.20.879,vb_task_exp_1,2022.2.5,None,
3,0.2,0.8,-0.6,-6,left,right,down,up,"(-0.2,-0.1)","(0.2,-0.1)","(0,-0.3)","(0,0.1)","(-0.2,0.0)","(0.2,0.0)","(0.0, -0.2)","(0.0, 0.2)",,,,,,,,,0,0,0,2,6,0,6,0,,,,,,,,,,,,,,,,,,,,,,,,,,,,,,,,,,,,,,,,,,,,,,,,,,,,347.4689726659999,347.8079498329971,347.8079498329971,347.8079498329971,347.8079498329971,347.8079498329971,347.8079498329971,347.8079498329971,347.8079498329971,347.8079498329971,347.8079498329971,,right,0,1.2407393330067862,349.0818317079975,349.0818317079975,349.0818317079975,349.0818317079975,349.0818317079975,349.0818317079975,349.0818317079975,349.0818317079975,349.56760245799524,349.56760245799524,349.59867941599805,,,,,,,,,,,,,,,,,,,,,,,,,,,930202,001,B,2023-07-04_16h22.20.879,vb_task_exp_1,2022.2.5,None,
3,0.2,0.8,-0.6,-6,left,right,down,up,"(-0.2,-0.1)","(0.2,-0.1)","(0,-0.3)","(0,0.1)","(-0.2,0.0)","(0.2,0.0)","(0.0, -0.2)","(0.0, 0.2)",,,,,,,,,0,0,0,2,7,0,7,0,,,,,,,,,,,,,,,,,,,,,,,,,,,,,,,,,,,,,,,,,,,,,,,,,,,,351.0649728749995,351.40559187500185,351.40559187500185,351.40559187500185,351.40559187500185,351.40559187500185,351.40559187500185,351.40559187500185,351.40559187500185,351.40559187500185,351.40559187500185,,right,0,1.1765955420050886,352.6162977499989,352.6162977499989,352.6162977499989,352.6162977499989,352.6162977499989,352.6162977499989,352.6162977499989,352.6162977499989,353.10195841600216,353.10195841600216,353.1340142909976,,,,,,,,,,,,,,,,,,,,,,,,,,,930202,001,B,2023-07-04_16h22.20.879,vb_task_exp_1,2022.2.5,None,
3,0.2,0.8,-0.6,-6,left,right,down,up,"(-0.2,-0.1)","(0.2,-0.1)","(0,-0.3)","(0,0.1)","(-0.2,0.0)","(0.2,0.0)","(0.0, -0.2)","(0.0, 0.2)",,,,,,,,,0,0,0,2,8,0,8,0,,,,,,,,,,,,,,,,,,,,,,,,,,,,,,,,,,,,,,,,,,,,,,,,,,,,354.5950878329968,354.89953550000064,354.89953550000064,354.89953550000064,354.89953550000064,354.89953550000064,354.89953550000064,354.89953550000064,354.89953550000064,354.89953550000064,354.89953550000064,,left,0,0.5111958330016932,355.45915529099875,355.45915529099875,355.45915529099875,355.45915529099875,355.45915529099875,355.45915529099875,355.45915529099875,355.45915529099875,355.943211040998,355.943211040998,355.9750964999985,,,,,,,,,,,,,,,,,,,,,,,,,,,930202,001,B,2023-07-04_16h22.20.879,vb_task_exp_1,2022.2.5,None,
3,0.2,0.8,-0.6,-6,left,right,down,up,"(-0.2,-0.1)","(0.2,-0.1)","(0,-0.3)","(0,0.1)","(-0.2,0.0)","(0.2,0.0)","(0.0, -0.2)","(0.0, 0.2)",,,,,,,,,0,0,0,2,9,0,9,0,,,,,,,,,,,,,,,,,,,,,,,,,,,,,,,,,,,,,,,,,,,,,,,,,,,,357.4423947499963,357.7555888749994,357.7555888749994,357.7555888749994,357.7555888749994,357.7555888749994,357.7555888749994,357.7555888749994,357.7555888749994,357.7555888749994,357.7555888749994,,left,0,0.7093629170049098,358.50079820799874,358.50079820799874,358.50079820799874,358.50079820799874,358.50079820799874,358.50079820799874,358.50079820799874,358.50079820799874,358.9905807499963,358.9905807499963,359.02258554099535,,,,,,,,,,,,,,,,,,,,,,,,,,,930202,001,B,2023-07-04_16h22.20.879,vb_task_exp_1,2022.2.5,None,
3,0.2,0.8,-0.6,-6,left,right,down,up,"(-0.2,-0.1)","(0.2,-0.1)","(0,-0.3)","(0,0.1)","(-0.2,0.0)","(0.2,0.0)","(0.0, -0.2)","(0.0, 0.2)",,,,,,,,,0,0,0,2,10,0,10,0,,,,,,,,,,,,,,,,,,,,,,,,,,,,,,,,,,,,,,,,,,,,,,,,,,,,360.4853304579956,360.807346374997,360.807346374997,360.807346374997,360.807346374997,360.807346374997,360.807346374997,360.807346374997,360.807346374997,360.807346374997,360.807346374997,,right,0,0.5885785409991513,361.4400608750002,361.4400608750002,361.4400608750002,361.4400608750002,361.4400608750002,361.4400608750002,361.4400608750002,361.4400608750002,361.92845779100026,361.92845779100026,361.96049408299587,,,,,,,,,,,,,,,,,,,,,,,,,,,930202,001,B,2023-07-04_16h22.20.879,vb_task_exp_1,2022.2.5,None,
3,0.2,0.8,-0.6,-6,left,right,down,up,"(-0.2,-0.1)","(0.2,-0.1)","(0,-0.3)","(0,0.1)","(-0.2,0.0)","(0.2,0.0)","(0.0, -0.2)","(0.0, 0.2)",,,,,,,,,0,0,0,2,11,0,11,0,,,,,,,,,,,,,,,,,,,,,,,,,,,,,,,,,,,,,,,,,,,,,,,,,,,,363.4234537910015,363.73674783299793,363.73674783299793,363.73674783299793,363.73674783299793,363.73674783299793,363.73674783299793,363.73674783299793,363.73674783299793,363.73674783299793,363.73674783299793,,right,0,0.40014320900081657,364.1701651659969,364.1701651659969,364.1701651659969,364.1701651659969,364.1701651659969,364.1701651659969,364.1701651659969,364.1701651659969,364.66221637499984,364.66221637499984,364.6943802079986,,,,,,,,,,,,,,,,,,,,,,,,,,,930202,001,B,2023-07-04_16h22.20.879,vb_task_exp_1,2022.2.5,None,
3,0.2,0.8,-0.6,-6,left,right,down,up,"(-0.2,-0.1)","(0.2,-0.1)","(0,-0.3)","(0,0.1)","(-0.2,0.0)","(0.2,0.0)","(0.0, -0.2)","(0.0, 0.2)",,,,,,,,,0,0,0,2,12,0,12,0,,,,,,,,,,,,,,,,,,,,,,,,,,,,,,,,,,,,,,,,,,,,,,,,,,,,366.1574884579968,366.4715853750022,366.4715853750022,366.4715853750022,366.4715853750022,366.4715853750022,366.4715853750022,366.4715853750022,366.4715853750022,366.4715853750022,366.4715853750022,,right,0,0.5434630840027239,367.0538759999981,367.0538759999981,367.0538759999981,367.0538759999981,367.0538759999981,367.0538759999981,367.0538759999981,367.0538759999981,367.54539120799745,367.54539120799745,367.57742320800025,,,,,,,,,,,,,,,,,,,,,,,,,,,930202,001,B,2023-07-04_16h22.20.879,vb_task_exp_1,2022.2.5,None,
3,0.2,0.8,-0.6,-6,left,right,down,up,"(-0.2,-0.1)","(0.2,-0.1)","(0,-0.3)","(0,0.1)","(-0.2,0.0)","(0.2,0.0)","(0.0, -0.2)","(0.0, 0.2)",,,,,,,,,0,0,0,2,13,0,13,0,,,,,,,,,,,,,,,,,,,,,,,,,,,,,,,,,,,,,,,,,,,,,,,,,,,,369.04051312500087,369.4043955410016,369.4043955410016,369.4043955410016,369.4043955410016,369.4043955410016,369.4043955410016,369.4043955410016,369.4043955410016,369.4043955410016,369.4043955410016,,right,0,0.382654500004719,369.8158630830003,369.8158630830003,369.8158630830003,369.8158630830003,369.8158630830003,369.8158630830003,369.8158630830003,369.8158630830003,370.3175971660021,370.3175971660021,370.3486629159961,371.7814154160005,371.7814154160005,,,,,,,,,,,,,,,,,,,,,,,,,930202,001,B,2023-07-04_16h22.20.879,vb_task_exp_1,2022.2.5,None,
3,0.2,0.8,-0.6,-6,left,right,down,up,"(-0.2,-0.1)","(0.2,-0.1)","(0,-0.3)","(0,0.1)","(-0.2,0.0)","(0.2,0.0)","(0.0, -0.2)","(0.0, 0.2)",,,,,,,,,0,0,0,2,14,0,14,0,,,,,,,,,,,,,,,,,,,,,,,,,,,,,,,,,,,,,,,,,,,,,,,,,,,,371.7970564999996,372.09489395799756,372.09489395799756,372.09489395799756,372.09489395799756,372.09489395799756,372.09489395799756,372.09489395799756,372.09489395799756,372.09489395799756,372.09489395799756,,right,0,0.5619454170009703,372.6876202909989,372.6876202909989,372.6876202909989,372.6876202909989,372.6876202909989,372.6876202909989,372.6876202909989,372.6876202909989,373.1790683750005,373.1790683750005,373.2110042080021,374.64721891599766,374.64721891599766,,,,,,,,,,,,,,,,,,,,,,,,,930202,001,B,2023-07-04_16h22.20.879,vb_task_exp_1,2022.2.5,None,
3,0.2,0.8,-0.6,-6,left,right,down,up,"(-0.2,-0.1)","(0.2,-0.1)","(0,-0.3)","(0,0.1)","(-0.2,0.0)","(0.2,0.0)","(0.0, -0.2)","(0.0, 0.2)",,,,,,,,,0,0,0,2,15,0,15,0,,,,,,,,,,,,,,,,,,,,,,,,,,,,,,,,,,,,,,,,,,,,,,,,,,,,374.6730097499967,374.9981100410005,374.9981100410005,374.9981100410005,374.9981100410005,374.9981100410005,374.9981100410005,374.9981100410005,374.9981100410005,374.9981100410005,374.9981100410005,,left,0,0.5521469160012202,375.58455174999835,375.58455174999835,375.58455174999835,375.58455174999835,375.58455174999835,375.58455174999835,375.58455174999835,375.58455174999835,376.07403283299936,376.07403283299936,376.1060182079964,,,,,,,,,,,,,,,,,,,,,,,,,,,930202,001,B,2023-07-04_16h22.20.879,vb_task_exp_1,2022.2.5,None,
3,0.2,0.8,-0.6,-6,left,right,down,up,"(-0.2,-0.1)","(0.2,-0.1)","(0,-0.3)","(0,0.1)","(-0.2,0.0)","(0.2,0.0)","(0.0, -0.2)","(0.0, 0.2)",,,,,,,,,0,0,0,2,16,0,16,0,,,,,,,,,,,,,,,,,,,,,,,,,,,,,,,,,,,,,,,,,,,,,,,,,,,,377.57097562499985,377.90458995800145,377.90458995800145,377.90458995800145,377.90458995800145,377.90458995800145,377.90458995800145,377.90458995800145,377.90458995800145,377.90458995800145,377.90458995800145,,left,0,0.5693506250026985,378.50287195800047,378.50287195800047,378.50287195800047,378.50287195800047,378.50287195800047,378.50287195800047,378.50287195800047,378.50287195800047,378.99082237499533,378.99082237499533,379.0228488329958,,,,,,,,,,,,,,,,,,,,,,,,,,,930202,001,B,2023-07-04_16h22.20.879,vb_task_exp_1,2022.2.5,None,
3,0.2,0.8,-0.6,-6,left,right,down,up,"(-0.2,-0.1)","(0.2,-0.1)","(0,-0.3)","(0,0.1)","(-0.2,0.0)","(0.2,0.0)","(0.0, -0.2)","(0.0, 0.2)",,,,,,,,,0,0,0,2,17,0,17,0,,,,,,,,,,,,,,,,,,,,,,,,,,,,,,,,,,,,,,,,,,,,,,,,,,,,380.486178207997,380.8433293749986,380.8433293749986,380.8433293749986,380.8433293749986,380.8433293749986,380.8433293749986,380.8433293749986,380.8433293749986,380.8433293749986,380.8433293749986,,right,0,0.27652979199774563,381.1532181250004,381.1532181250004,381.1532181250004,381.1532181250004,381.1532181250004,381.1532181250004,381.1532181250004,381.1532181250004,381.64703745800216,381.64703745800216,381.6790863749993,383.11379608300194,383.11379608300194,,,,,,,,,,,,,,,,,,,,,,,,,930202,001,B,2023-07-04_16h22.20.879,vb_task_exp_1,2022.2.5,None,
3,0.2,0.8,-0.6,-6,left,right,down,up,"(-0.2,-0.1)","(0.2,-0.1)","(0,-0.3)","(0,0.1)","(-0.2,0.0)","(0.2,0.0)","(0.0, -0.2)","(0.0, 0.2)",,,,,,,,,0,0,0,2,18,0,18,0,,,,,,,,,,,,,,,,,,,,,,,,,,,,,,,,,,,,,,,,,,,,,,,,,,,,383.14017954099836,383.4441204579998,383.4441204579998,383.4441204579998,383.4441204579998,383.4441204579998,383.4441204579998,383.4441204579998,383.4441204579998,383.4441204579998,383.4441204579998,,right,0,0.29408875000081025,383.77224916599516,383.77224916599516,383.77224916599516,383.77224916599516,383.77224916599516,383.77224916599516,383.77224916599516,383.77224916599516,384.2674407500017,384.2674407500017,384.3023917499959,385.7332015829961,385.7332015829961,,,,,,,,,,,,,,,,,,,,,,,,,930202,001,B,2023-07-04_16h22.20.879,vb_task_exp_1,2022.2.5,None,
3,0.2,0.8,-0.6,-6,left,right,down,up,"(-0.2,-0.1)","(0.2,-0.1)","(0,-0.3)","(0,0.1)","(-0.2,0.0)","(0.2,0.0)","(0.0, -0.2)","(0.0, 0.2)",,,,,,,,,0,0,0,2,19,0,19,0,,,,,,,,,,,,,,,,,,,,,,,,,,,,,,,,,,,,,,,,,,,,,,,,,,,,385.7489155410003,386.1106554579965,386.1106554579965,386.1106554579965,386.1106554579965,386.1106554579965,386.1106554579965,386.1106554579965,386.1106554579965,386.1106554579965,386.1106554579965,,left,0,0.9972939579965896,387.1405739999973,387.1405739999973,387.1405739999973,387.1405739999973,387.1405739999973,387.1405739999973,387.1405739999973,387.1405739999973,387.62578275000124,387.62578275000124,387.6578537079986,,,,,,,,,,,,,,,,,,,,,,,,,,,930202,001,B,2023-07-04_16h22.20.879,vb_task_exp_1,2022.2.5,None,
3,0.2,0.8,-0.6,-6,left,right,down,up,"(-0.2,-0.1)","(0.2,-0.1)","(0,-0.3)","(0,0.1)","(-0.2,0.0)","(0.2,0.0)","(0.0, -0.2)","(0.0, 0.2)",,,,,,,,,0,0,0,2,20,0,20,0,,,,,,,,,,,,,,,,,,,,,,,,,,,,,,,,,,,,,,,,,,,,,,,,,,,,389.1247307079975,389.4389661659952,389.4389661659952,389.4389661659952,389.4389661659952,389.4389661659952,389.4389661659952,389.4389661659952,389.4389661659952,389.4389661659952,389.4389661659952,,left,0,0.23454012499860255,389.7086445829991,389.7086445829991,389.7086445829991,389.7086445829991,389.7086445829991,389.7086445829991,389.7086445829991,389.7086445829991,390.1997254999951,390.1997254999951,390.23151241600135,,,,,,,,,,,,,,,,,,,,,,,,,,,930202,001,B,2023-07-04_16h22.20.879,vb_task_exp_1,2022.2.5,None,
3,0.2,0.8,-0.6,-6,left,right,down,up,"(-0.2,-0.1)","(0.2,-0.1)","(0,-0.3)","(0,0.1)","(-0.2,0.0)","(0.2,0.0)","(0.0, -0.2)","(0.0, 0.2)",,,,,,,,,0,0,0,2,21,0,21,0,,,,,,,,,,,,,,,,,,,,,,,,,,,,,,,,,,,,,,,,,,,,,,,,,,,,391.69506312500016,392.0041187079987,392.0041187079987,392.0041187079987,392.0041187079987,392.0041187079987,392.0041187079987,392.0041187079987,392.0041187079987,392.0041187079987,392.0041187079987,,left,0,0.3818064580045757,392.4202264580017,392.4202264580017,392.4202264580017,392.4202264580017,392.4202264580017,392.4202264580017,392.4202264580017,392.4202264580017,392.90720558299654,392.90720558299654,392.9391853749985,,,,,,,,,,,,,,,,,,,,,,,,,,,930202,001,B,2023-07-04_16h22.20.879,vb_task_exp_1,2022.2.5,None,
3,0.2,0.8,-0.6,-6,left,right,down,up,"(-0.2,-0.1)","(0.2,-0.1)","(0,-0.3)","(0,0.1)","(-0.2,0.0)","(0.2,0.0)","(0.0, -0.2)","(0.0, 0.2)",,,,,,,,,0,0,0,2,22,0,22,0,,,,,,,,,,,,,,,,,,,,,,,,,,,,,,,,,,,,,,,,,,,,,,,,,,,,394.40689016599936,394.73987941599626,394.73987941599626,394.73987941599626,394.73987941599626,394.73987941599626,394.73987941599626,394.73987941599626,394.73987941599626,394.73987941599626,394.73987941599626,,left,0,0.3282174580017454,395.1020221250001,395.1020221250001,395.1020221250001,395.1020221250001,395.1020221250001,395.1020221250001,395.1020221250001,395.1020221250001,395.587245374998,395.587245374998,395.6194066659955,,,,,,,,,,,,,,,,,,,,,,,,,,,930202,001,B,2023-07-04_16h22.20.879,vb_task_exp_1,2022.2.5,None,
3,0.2,0.8,-0.6,-6,left,right,down,up,"(-0.2,-0.1)","(0.2,-0.1)","(0,-0.3)","(0,0.1)","(-0.2,0.0)","(0.2,0.0)","(0.0, -0.2)","(0.0, 0.2)",,,,,,,,,0,0,0,2,23,0,23,0,,,,,,,,,,,,,,,,,,,,,,,,,,,,,,,,,,,,,,,,,,,,,,,,,,,,397.08955725000123,397.4185489579977,397.4185489579977,397.4185489579977,397.4185489579977,397.4185489579977,397.4185489579977,397.4185489579977,397.4185489579977,397.4185489579977,397.4185489579977,,left,0,0.4159427080012392,397.8647435829989,397.8647435829989,397.8647435829989,397.8647435829989,397.8647435829989,397.8647435829989,397.8647435829989,397.8647435829989,398.353115291,398.353115291,398.38516725000227,,,,,,,,,,,,,,,,,,,,,,,,,,,930202,001,B,2023-07-04_16h22.20.879,vb_task_exp_1,2022.2.5,None,
3,0.2,0.8,-0.6,-6,left,right,down,up,"(-0.2,-0.1)","(0.2,-0.1)","(0,-0.3)","(0,0.1)","(-0.2,0.0)","(0.2,0.0)","(0.0, -0.2)","(0.0, 0.2)",,,,,,,,,0,0,0,2,24,0,24,0,,,,,,,,,,,,,,,,,,,,,,,,,,,,,,,,,,,,,,,,,,,,,,,,,,,,399.8537583329962,400.1610287910007,400.1610287910007,400.1610287910007,400.1610287910007,400.1610287910007,400.1610287910007,400.1610287910007,400.1610287910007,400.1610287910007,400.1610287910007,,left,0,0.21966183299809927,400.42534354099917,400.42534354099917,400.42534354099917,400.42534354099917,400.42534354099917,400.42534354099917,400.42534354099917,400.42534354099917,400.9128531249953,400.9128531249953,400.9449278329994,,,,,,,,,,,,,,,,,,,,,,,,,,,930202,001,B,2023-07-04_16h22.20.879,vb_task_exp_1,2022.2.5,None,
3,0.2,0.8,-0.6,-6,left,right,down,up,"(-0.2,-0.1)","(0.2,-0.1)","(0,-0.3)","(0,0.1)","(-0.2,0.0)","(0.2,0.0)","(0.0, -0.2)","(0.0, 0.2)",,,,,,,,,0,0,0,2,25,0,25,0,,,,,,,,,,,,,,,,,,,,,,,,,,,,,,,,,,,,,,,,,,,,,,,,,,,,402.41168258299876,402.74551866600086,402.74551866600086,402.74551866600086,402.74551866600086,402.74551866600086,402.74551866600086,402.74551866600086,402.74551866600086,402.74551866600086,402.74551866600086,,right,0,0.1633603750015027,402.94150345800153,402.94150345800153,402.94150345800153,402.94150345800153,402.94150345800153,402.94150345800153,402.94150345800153,402.94150345800153,403.43611745799717,403.43611745799717,403.4681683329982,404.90404424999724,404.90404424999724,,,,,,,,,,,,,,,,,,,,,,,,,930202,001,B,2023-07-04_16h22.20.879,vb_task_exp_1,2022.2.5,None,
3,0.2,0.8,-0.6,-6,left,right,down,up,"(-0.2,-0.1)","(0.2,-0.1)","(0,-0.3)","(0,0.1)","(-0.2,0.0)","(0.2,0.0)","(0.0, -0.2)","(0.0, 0.2)",,,,,,,,,0,0,0,2,26,0,26,0,,,,,,,,,,,,,,,,,,,,,,,,,,,,,,,,,,,,,,,,,,,,,,,,,,,,404.9254441660014,405.24249574999703,405.24249574999703,405.24249574999703,405.24249574999703,405.24249574999703,405.24249574999703,405.24249574999703,405.24249574999703,405.24249574999703,405.24249574999703,,right,0,0.4688240000032238,405.74163783300173,405.74163783300173,405.74163783300173,405.74163783300173,405.74163783300173,405.74163783300173,405.74163783300173,405.74163783300173,406.2307744579957,406.2307744579957,406.26260750000074,,,,,,,,,,,,,,,,,,,,,,,,,,,930202,001,B,2023-07-04_16h22.20.879,vb_task_exp_1,2022.2.5,None,
3,0.2,0.8,-0.6,-6,left,right,down,up,"(-0.2,-0.1)","(0.2,-0.1)","(0,-0.3)","(0,0.1)","(-0.2,0.0)","(0.2,0.0)","(0.0, -0.2)","(0.0, 0.2)",,,,,,,,,0,0,0,2,27,0,27,0,,,,,,,,,,,,,,,,,,,,,,,,,,,,,,,,,,,,,,,,,,,,,,,,,,,,407.72912916600035,408.0504543329953,408.0504543329953,408.0504543329953,408.0504543329953,408.0504543329953,408.0504543329953,408.0504543329953,408.0504543329953,408.0504543329953,408.0504543329953,,right,0,0.2595417920019827,408.3389650409954,408.3389650409954,408.3389650409954,408.3389650409954,408.3389650409954,408.3389650409954,408.3389650409954,408.3389650409954,408.83720241599804,408.83720241599804,408.8690999579994,,,,,,,,,,,,,,,,,,,,,,,,,,,930202,001,B,2023-07-04_16h22.20.879,vb_task_exp_1,2022.2.5,None,
3,0.2,0.8,-0.6,-6,left,right,down,up,"(-0.2,-0.1)","(0.2,-0.1)","(0,-0.3)","(0,0.1)","(-0.2,0.0)","(0.2,0.0)","(0.0, -0.2)","(0.0, 0.2)",,,,,,,,,0,0,0,2,28,0,28,0,,,,,,,,,,,,,,,,,,,,,,,,,,,,,,,,,,,,,,,,,,,,,,,,,,,,410.3194133750003,410.69845937500213,410.69845937500213,410.69845937500213,410.69845937500213,410.69845937500213,410.69845937500213,410.69845937500213,410.69845937500213,410.69845937500213,410.69845937500213,,right,0,0.23896370799775468,410.97183974999643,410.97183974999643,410.97183974999643,410.97183974999643,410.97183974999643,410.97183974999643,410.97183974999643,410.97183974999643,411.46538408299966,411.46538408299966,411.4965352910003,,,,,,,,,,,,,,,,,,,,,,,,,,,930202,001,B,2023-07-04_16h22.20.879,vb_task_exp_1,2022.2.5,None,
3,0.2,0.8,-0.6,-6,left,right,down,up,"(-0.2,-0.1)","(0.2,-0.1)","(0,-0.3)","(0,0.1)","(-0.2,0.0)","(0.2,0.0)","(0.0, -0.2)","(0.0, 0.2)",,,,,,,,,0,0,0,2,29,0,29,0,,,,,,,,,,,,,,,,,,,,,,,,,,,,,,,,,,,,,,,,,,,,,,,,,,,,412.96147420800116,413.27491624999675,413.27491624999675,413.27491624999675,413.27491624999675,413.27491624999675,413.27491624999675,413.27491624999675,413.27491624999675,413.27491624999675,413.27491624999675,,right,0,0.40726645800168626,413.7290735409988,413.7290735409988,413.7290735409988,413.7290735409988,413.7290735409988,413.7290735409988,413.7290735409988,413.7290735409988,414.23724874999607,414.23724874999607,414.2692826249986,,,,,,,,,,,,,,,,,,,,,,,,,,,930202,001,B,2023-07-04_16h22.20.879,vb_task_exp_1,2022.2.5,None,
4,0.8,0.2,0.6,6,right,left,down,up,"(0.2,-0.1)","(-0.2,-0.1)","(0,-0.3)","(0,0.1)","(0.2,0.0)","(-0.2,0.0)","(0.0, -0.2)","(0.0, 0.2)",,,,,,,,,0,1,1,6,0,0,0,0,,,,,,,,,,,,,,,,,,,,,,,,,,,,,,,,,,,,,,,,,,,,,,,,,,,419.171922290996,421.1783605829987,421.56442245799553,421.56442245799553,421.56442245799553,421.56442245799553,421.56442245799553,421.56442245799553,421.56442245799553,421.56442245799553,421.56442245799553,421.56442245799553,423.5373927909968,right,0,10.43263983300858,432.0465549579967,432.0465549579967,432.0465549579967,432.0465549579967,432.0465549579967,432.0465549579967,432.0465549579967,432.0465549579967,432.53389649999735,432.53389649999735,432.56593350000185,434.00397545799933,434.00397545799933,415.7425933330014,415.7425933330014,415.7425933330014,0.011843708998640068,415.7425933330014,415.7425933330014,None,None,[0.437125748502994],[-0.2887082976903336],[1],[0],[0],[3.4486761250009295],['validate'],None,None,,,,,,,421.1783605829987,930202,001,B,2023-07-04_16h22.20.879,vb_task_exp_1,2022.2.5,None,
4,0.8,0.2,0.6,6,right,left,down,up,"(0.2,-0.1)","(-0.2,-0.1)","(0,-0.3)","(0,0.1)","(0.2,0.0)","(-0.2,0.0)","(0.0, -0.2)","(0.0, 0.2)",,,,,,,,,0,1,1,6,1,0,1,0,,,,,,,,,,,,,,,,,,,,,,,,,,,,,,,,,,,,,,,,,,,,,,,,,,,,434.01902212500136,434.35174566599744,434.35174566599744,434.35174566599744,434.35174566599744,434.35174566599744,434.35174566599744,434.35174566599744,434.35174566599744,434.35174566599744,434.35174566599744,436.3294398750004,right,0,37.59693850000622,471.99178362499515,471.99178362499515,471.99178362499515,471.99178362499515,471.99178362499515,471.99178362499515,471.99178362499515,471.99178362499515,472.47737033299927,472.47737033299927,472.50937512499513,,,,,,,,,,,,,,,,,,,,,,,,,,,930202,001,B,2023-07-04_16h22.20.879,vb_task_exp_1,2022.2.5,None,
4,0.8,0.2,0.6,6,right,left,down,up,"(0.2,-0.1)","(-0.2,-0.1)","(0,-0.3)","(0,0.1)","(0.2,0.0)","(-0.2,0.0)","(0.0, -0.2)","(0.0, 0.2)",,,,,,,,,0,1,1,6,2,0,2,0,,,,,,,,,,,,,,,,,,,,,,,,,,,,,,,,,,,,,,,,,,,,,,,,,,,,473.97527729099966,474.3034433329958,474.3034433329958,474.3034433329958,474.3034433329958,474.3034433329958,474.3034433329958,474.3034433329958,474.3034433329958,474.3034433329958,474.3034433329958,,right,0,0.35926095800095936,474.70130345800135,474.70130345800135,474.70130345800135,474.70130345800135,474.70130345800135,474.70130345800135,474.70130345800135,474.70130345800135,475.2084946659961,475.2084946659961,475.2405451250015,476.6634968329963,476.6634968329963,,,,,,,,,,,,,,,,,,,,,,,,,930202,001,B,2023-07-04_16h22.20.879,vb_task_exp_1,2022.2.5,None,
4,0.8,0.2,0.6,6,right,left,down,up,"(0.2,-0.1)","(-0.2,-0.1)","(0,-0.3)","(0,0.1)","(0.2,0.0)","(-0.2,0.0)","(0.0, -0.2)","(0.0, 0.2)",,,,,,,,,0,1,1,6,3,0,3,0,,,,,,,,,,,,,,,,,,,,,,,,,,,,,,,,,,,,,,,,,,,,,,,,,,,,476.6778176250009,477.0031531249988,477.0031531249988,477.0031531249988,477.0031531249988,477.0031531249988,477.0031531249988,477.0031531249988,477.0031531249988,477.0031531249988,477.0031531249988,,right,0,0.32888220799941337,477.3630394579959,477.3630394579959,477.3630394579959,477.3630394579959,477.3630394579959,477.3630394579959,477.3630394579959,477.3630394579959,477.8536914159995,477.8536914159995,477.88564662499994,479.32222575000196,479.32222575000196,,,,,,,,,,,,,,,,,,,,,,,,,930202,001,B,2023-07-04_16h22.20.879,vb_task_exp_1,2022.2.5,None,
4,0.8,0.2,0.6,6,right,left,down,up,"(0.2,-0.1)","(-0.2,-0.1)","(0,-0.3)","(0,0.1)","(0.2,0.0)","(-0.2,0.0)","(0.0, -0.2)","(0.0, 0.2)",,,,,,,,,0,1,1,6,4,0,4,0,,,,,,,,,,,,,,,,,,,,,,,,,,,,,,,,,,,,,,,,,,,,,,,,,,,,479.34836691599776,479.6978976659957,479.6978976659957,479.6978976659957,479.6978976659957,479.6978976659957,479.6978976659957,479.6978976659957,479.6978976659957,479.6978976659957,479.6978976659957,,right,0,0.20764100000087637,479.93945570800133,479.93945570800133,479.93945570800133,479.93945570800133,479.93945570800133,479.93945570800133,479.93945570800133,479.93945570800133,480.4273224999997,480.4273224999997,480.45916370800114,481.90127529099846,481.90127529099846,,,,,,,,,,,,,,,,,,,,,,,,,930202,001,B,2023-07-04_16h22.20.879,vb_task_exp_1,2022.2.5,None,
4,0.8,0.2,0.6,6,right,left,down,up,"(0.2,-0.1)","(-0.2,-0.1)","(0,-0.3)","(0,0.1)","(0.2,0.0)","(-0.2,0.0)","(0.0, -0.2)","(0.0, 0.2)",,,,,,,,,0,1,1,6,5,0,5,0,,,,,,,,,,,,,,,,,,,,,,,,,,,,,,,,,,,,,,,,,,,,,,,,,,,,481.91514933299914,482.2451546660013,482.2451546660013,482.2451546660013,482.2451546660013,482.2451546660013,482.2451546660013,482.2451546660013,482.2451546660013,482.2451546660013,482.2451546660013,,right,0,0.2778705419987091,482.5746229579963,482.5746229579963,482.5746229579963,482.5746229579963,482.5746229579963,482.5746229579963,482.5746229579963,482.5746229579963,483.06516941599693,483.06516941599693,483.0972874579966,,,,,,,,,,,,,,,,,,,,,,,,,,,930202,001,B,2023-07-04_16h22.20.879,vb_task_exp_1,2022.2.5,None,
4,0.8,0.2,0.6,6,right,left,down,up,"(0.2,-0.1)","(-0.2,-0.1)","(0,-0.3)","(0,0.1)","(0.2,0.0)","(-0.2,0.0)","(0.0, -0.2)","(0.0, 0.2)",,,,,,,,,0,1,1,6,6,0,6,0,,,,,,,,,,,,,,,,,,,,,,,,,,,,,,,,,,,,,,,,,,,,,,,,,,,,484.5630197079954,484.8534371249989,484.8534371249989,484.8534371249989,484.8534371249989,484.8534371249989,484.8534371249989,484.8534371249989,484.8534371249989,484.8534371249989,484.8534371249989,,left,0,0.43256391700560926,485.32355129099597,485.32355129099597,485.32355129099597,485.32355129099597,485.32355129099597,485.32355129099597,485.32355129099597,485.32355129099597,485.8287374579959,485.8287374579959,485.86075120799796,487.29459558300005,487.29459558300005,,,,,,,,,,,,,,,,,,,,,,,,,930202,001,B,2023-07-04_16h22.20.879,vb_task_exp_1,2022.2.5,None,
4,0.8,0.2,0.6,6,right,left,down,up,"(0.2,-0.1)","(-0.2,-0.1)","(0,-0.3)","(0,0.1)","(0.2,0.0)","(-0.2,0.0)","(0.0, -0.2)","(0.0, 0.2)",,,,,,,,,0,1,1,6,7,0,7,0,,,,,,,,,,,,,,,,,,,,,,,,,,,,,,,,,,,,,,,,,,,,,,,,,,,,487.3046730829956,487.66453483299847,487.66453483299847,487.66453483299847,487.66453483299847,487.66453483299847,487.66453483299847,487.66453483299847,487.66453483299847,487.66453483299847,487.66453483299847,,left,0,0.0782238750034594,487.78248087500106,487.78248087500106,487.78248087500106,487.78248087500106,487.78248087500106,487.78248087500106,487.78248087500106,487.78248087500106,488.2687731659971,488.2687731659971,488.3012861249954,,,,,,,,,,,,,,,,,,,,,,,,,,,930202,001,B,2023-07-04_16h22.20.879,vb_task_exp_1,2022.2.5,None,
4,0.8,0.2,0.6,6,right,left,down,up,"(0.2,-0.1)","(-0.2,-0.1)","(0,-0.3)","(0,0.1)","(0.2,0.0)","(-0.2,0.0)","(0.0, -0.2)","(0.0, 0.2)",,,,,,,,,0,1,1,6,8,0,8,0,,,,,,,,,,,,,,,,,,,,,,,,,,,,,,,,,,,,,,,,,,,,,,,,,,,,489.7682448330015,490.10459295799956,490.10459295799956,490.10459295799956,490.10459295799956,490.10459295799956,490.10459295799956,490.10459295799956,490.10459295799956,490.10459295799956,490.10459295799956,,left,0,0.29116220799915027,490.430664624997,490.430664624997,490.430664624997,490.430664624997,490.430664624997,490.430664624997,490.430664624997,490.430664624997,490.91701145799743,490.91701145799743,490.94878670799517,,,,,,,,,,,,,,,,,,,,,,,,,,,930202,001,B,2023-07-04_16h22.20.879,vb_task_exp_1,2022.2.5,None,
4,0.8,0.2,0.6,6,right,left,down,up,"(0.2,-0.1)","(-0.2,-0.1)","(0,-0.3)","(0,0.1)","(0.2,0.0)","(-0.2,0.0)","(0.0, -0.2)","(0.0, 0.2)",,,,,,,,,0,1,1,6,9,0,9,0,,,,,,,,,,,,,,,,,,,,,,,,,,,,,,,,,,,,,,,,,,,,,,,,,,,,492.4095861659953,492.73235466599726,492.73235466599726,492.73235466599726,492.73235466599726,492.73235466599726,492.73235466599726,492.73235466599726,492.73235466599726,492.73235466599726,492.73235466599726,,left,0,0.23969120899710106,493.006078790997,493.006078790997,493.006078790997,493.006078790997,493.006078790997,493.006078790997,493.006078790997,493.006078790997,493.49420595799893,493.49420595799893,493.52627733299596,494.9654147909969,494.9654147909969,,,,,,,,,,,,,,,,,,,,,,,,,930202,001,B,2023-07-04_16h22.20.879,vb_task_exp_1,2022.2.5,None,
4,0.8,0.2,0.6,6,right,left,down,up,"(0.2,-0.1)","(-0.2,-0.1)","(0,-0.3)","(0,0.1)","(0.2,0.0)","(-0.2,0.0)","(0.0, -0.2)","(0.0, 0.2)",,,,,,,,,0,1,1,6,10,0,10,0,,,,,,,,,,,,,,,,,,,,,,,,,,,,,,,,,,,,,,,,,,,,,,,,,,,,494.99142837499676,495.33470841599774,495.33470841599774,495.33470841599774,495.33470841599774,495.33470841599774,495.33470841599774,495.33470841599774,495.33470841599774,495.33470841599774,495.33470841599774,,left,0,0.28790904200286604,495.65523199999734,495.65523199999734,495.65523199999734,495.65523199999734,495.65523199999734,495.65523199999734,495.65523199999734,495.65523199999734,496.14058116600063,496.14058116600063,496.17275441600214,,,,,,,,,,,,,,,,,,,,,,,,,,,930202,001,B,2023-07-04_16h22.20.879,vb_task_exp_1,2022.2.5,None,
4,0.8,0.2,0.6,6,right,left,down,up,"(0.2,-0.1)","(-0.2,-0.1)","(0,-0.3)","(0,0.1)","(0.2,0.0)","(-0.2,0.0)","(0.0, -0.2)","(0.0, 0.2)",,,,,,,,,0,1,1,6,11,0,11,0,,,,,,,,,,,,,,,,,,,,,,,,,,,,,,,,,,,,,,,,,,,,,,,,,,,,497.6398174579954,497.9363352500004,497.9363352500004,497.9363352500004,497.9363352500004,497.9363352500004,497.9363352500004,497.9363352500004,497.9363352500004,497.9363352500004,497.9363352500004,,left,0,0.27692270800616825,498.25303204100055,498.25303204100055,498.25303204100055,498.25303204100055,498.25303204100055,498.25303204100055,498.25303204100055,498.25303204100055,498.7387259160023,498.7387259160023,498.77069912500156,,,,,,,,,,,,,,,,,,,,,,,,,,,930202,001,B,2023-07-04_16h22.20.879,vb_task_exp_1,2022.2.5,None,
4,0.8,0.2,0.6,6,right,left,down,up,"(0.2,-0.1)","(-0.2,-0.1)","(0,-0.3)","(0,0.1)","(0.2,0.0)","(-0.2,0.0)","(0.0, -0.2)","(0.0, 0.2)",,,,,,,,,0,1,1,6,12,0,12,0,,,,,,,,,,,,,,,,,,,,,,,,,,,,,,,,,,,,,,,,,,,,,,,,,,,,500.2369144999975,500.5428338330021,500.5428338330021,500.5428338330021,500.5428338330021,500.5428338330021,500.5428338330021,500.5428338330021,500.5428338330021,500.5428338330021,500.5428338330021,,right,0,0.37278708300436847,500.95216791599523,500.95216791599523,500.95216791599523,500.95216791599523,500.95216791599523,500.95216791599523,500.95216791599523,500.95216791599523,501.4380867910004,501.4380867910004,501.4700999159977,,,,,,,,,,,,,,,,,,,,,,,,,,,930202,001,B,2023-07-04_16h22.20.879,vb_task_exp_1,2022.2.5,None,
4,0.8,0.2,0.6,6,right,left,down,up,"(0.2,-0.1)","(-0.2,-0.1)","(0,-0.3)","(0,0.1)","(0.2,0.0)","(-0.2,0.0)","(0.0, -0.2)","(0.0, 0.2)",,,,,,,,,0,1,1,6,13,0,13,0,,,,,,,,,,,,,,,,,,,,,,,,,,,,,,,,,,,,,,,,,,,,,,,,,,,,502.9331086660022,503.2432355409983,503.2432355409983,503.2432355409983,503.2432355409983,503.2432355409983,503.2432355409983,503.2432355409983,503.2432355409983,503.2432355409983,503.2432355409983,,right,0,0.2436487080049119,503.5206407910009,503.5206407910009,503.5206407910009,503.5206407910009,503.5206407910009,503.5206407910009,503.5206407910009,503.5206407910009,504.0077076250018,504.0077076250018,504.0399029159962,505.48218908299896,505.48218908299896,,,,,,,,,,,,,,,,,,,,,,,,,930202,001,B,2023-07-04_16h22.20.879,vb_task_exp_1,2022.2.5,None,
4,0.8,0.2,0.6,6,right,left,down,up,"(0.2,-0.1)","(-0.2,-0.1)","(0,-0.3)","(0,0.1)","(0.2,0.0)","(-0.2,0.0)","(0.0, -0.2)","(0.0, 0.2)",,,,,,,,,0,1,1,6,14,0,14,0,,,,,,,,,,,,,,,,,,,,,,,,,,,,,,,,,,,,,,,,,,,,,,,,,,,,505.5083869579976,505.8323919159957,505.8323919159957,505.8323919159957,505.8323919159957,505.8323919159957,505.8323919159957,505.8323919159957,505.8323919159957,505.8323919159957,505.8323919159957,,right,0,0.29869595800118987,506.16227187500044,506.16227187500044,506.16227187500044,506.16227187500044,506.16227187500044,506.16227187500044,506.16227187500044,506.16227187500044,506.65238524999586,506.65238524999586,506.6843991249989,,,,,,,,,,,,,,,,,,,,,,,,,,,930202,001,B,2023-07-04_16h22.20.879,vb_task_exp_1,2022.2.5,None,
4,0.8,0.2,0.6,6,right,left,down,up,"(0.2,-0.1)","(-0.2,-0.1)","(0,-0.3)","(0,0.1)","(0.2,0.0)","(-0.2,0.0)","(0.0, -0.2)","(0.0, 0.2)",,,,,,,,,0,1,1,6,15,0,15,0,,,,,,,,,,,,,,,,,,,,,,,,,,,,,,,,,,,,,,,,,,,,,,,,,,,,508.15026358299656,508.4600831659991,508.4600831659991,508.4600831659991,508.4600831659991,508.4600831659991,508.4600831659991,508.4600831659991,508.4600831659991,508.4600831659991,508.4600831659991,,right,0,0.2718304160007392,508.76692550000007,508.76692550000007,508.76692550000007,508.76692550000007,508.76692550000007,508.76692550000007,508.76692550000007,508.76692550000007,509.2536574580008,509.2536574580008,509.2874816659969,,,,,,,,,,,,,,,,,,,,,,,,,,,930202,001,B,2023-07-04_16h22.20.879,vb_task_exp_1,2022.2.5,None,
4,0.8,0.2,0.6,6,right,left,down,up,"(0.2,-0.1)","(-0.2,-0.1)","(0,-0.3)","(0,0.1)","(0.2,0.0)","(-0.2,0.0)","(0.0, -0.2)","(0.0, 0.2)",,,,,,,,,0,1,1,6,16,0,16,0,,,,,,,,,,,,,,,,,,,,,,,,,,,,,,,,,,,,,,,,,,,,,,,,,,,,510.74816912499955,511.08477870799834,511.08477870799834,511.08477870799834,511.08477870799834,511.08477870799834,511.08477870799834,511.08477870799834,511.08477870799834,511.08477870799834,511.08477870799834,,right,0,0.3150799159993767,511.43643333300133,511.43643333300133,511.43643333300133,511.43643333300133,511.43643333300133,511.43643333300133,511.43643333300133,511.43643333300133,511.9200589579996,511.9200589579996,511.95225562500127,,,,,,,,,,,,,,,,,,,,,,,,,,,930202,001,B,2023-07-04_16h22.20.879,vb_task_exp_1,2022.2.5,None,
4,0.8,0.2,0.6,6,right,left,down,up,"(0.2,-0.1)","(-0.2,-0.1)","(0,-0.3)","(0,0.1)","(0.2,0.0)","(-0.2,0.0)","(0.0, -0.2)","(0.0, 0.2)",,,,,,,,,0,1,1,6,17,0,17,0,,,,,,,,,,,,,,,,,,,,,,,,,,,,,,,,,,,,,,,,,,,,,,,,,,,,513.4237897499988,513.7399308749955,513.7399308749955,513.7399308749955,513.7399308749955,513.7399308749955,513.7399308749955,513.7399308749955,513.7399308749955,513.7399308749955,513.7399308749955,,right,0,0.3779492500034394,514.1486897909999,514.1486897909999,514.1486897909999,514.1486897909999,514.1486897909999,514.1486897909999,514.1486897909999,514.1486897909999,514.6348465409974,514.6348465409974,514.6669790000014,,,,,,,,,,,,,,,,,,,,,,,,,,,930202,001,B,2023-07-04_16h22.20.879,vb_task_exp_1,2022.2.5,None,
4,0.8,0.2,0.6,6,right,left,down,up,"(0.2,-0.1)","(-0.2,-0.1)","(0,-0.3)","(0,0.1)","(0.2,0.0)","(-0.2,0.0)","(0.0, -0.2)","(0.0, 0.2)",,,,,,,,,0,1,1,6,18,0,18,0,,,,,,,,,,,,,,,,,,,,,,,,,,,,,,,,,,,,,,,,,,,,,,,,,,,,516.1322560830013,516.431646332996,516.431646332996,516.431646332996,516.431646332996,516.431646332996,516.431646332996,516.431646332996,516.431646332996,516.431646332996,516.431646332996,,right,0,0.10748495800362434,516.5706023749954,516.5706023749954,516.5706023749954,516.5706023749954,516.5706023749954,516.5706023749954,516.5706023749954,516.5706023749954,517.0592780000006,517.0592780000006,517.0910970409968,,,,,,,,,,,,,,,,,,,,,,,,,,,930202,001,B,2023-07-04_16h22.20.879,vb_task_exp_1,2022.2.5,None,
4,0.8,0.2,0.6,6,right,left,down,up,"(0.2,-0.1)","(-0.2,-0.1)","(0,-0.3)","(0,0.1)","(0.2,0.0)","(-0.2,0.0)","(0.0, -0.2)","(0.0, 0.2)",,,,,,,,,0,1,1,6,19,0,19,0,,,,,,,,,,,,,,,,,,,,,,,,,,,,,,,,,,,,,,,,,,,,,,,,,,,,518.5509445829957,518.8635547910017,518.8635547910017,518.8635547910017,518.8635547910017,518.8635547910017,518.8635547910017,518.8635547910017,518.8635547910017,518.8635547910017,518.8635547910017,,right,0,0.27211387500574347,519.1663096249977,519.1663096249977,519.1663096249977,519.1663096249977,519.1663096249977,519.1663096249977,519.1663096249977,519.1663096249977,519.6593260410009,519.6593260410009,519.691324665997,521.1270476659993,521.1270476659993,,,,,,,,,,,,,,,,,,,,,,,,,930202,001,B,2023-07-04_16h22.20.879,vb_task_exp_1,2022.2.5,None,
4,0.8,0.2,0.6,6,right,left,down,up,"(0.2,-0.1)","(-0.2,-0.1)","(0,-0.3)","(0,0.1)","(0.2,0.0)","(-0.2,0.0)","(0.0, -0.2)","(0.0, 0.2)",,,,,,,,,0,1,1,6,20,0,20,0,,,,,,,,,,,,,,,,,,,,,,,,,,,,,,,,,,,,,,,,,,,,,,,,,,,,521.1525605409988,521.484879333002,521.484879333002,521.484879333002,521.484879333002,521.484879333002,521.484879333002,521.484879333002,521.484879333002,521.484879333002,521.484879333002,,right,0,0.24389216700365068,521.7606191660016,521.7606191660016,521.7606191660016,521.7606191660016,521.7606191660016,521.7606191660016,521.7606191660016,521.7606191660016,522.2464759579962,522.2464759579962,522.278272040996,,,,,,,,,,,,,,,,,,,,,,,,,,,930202,001,B,2023-07-04_16h22.20.879,vb_task_exp_1,2022.2.5,None,
4,0.8,0.2,0.6,6,right,left,down,up,"(0.2,-0.1)","(-0.2,-0.1)","(0,-0.3)","(0,0.1)","(0.2,0.0)","(-0.2,0.0)","(0.0, -0.2)","(0.0, 0.2)",,,,,,,,,0,1,1,6,21,0,21,0,,,,,,,,,,,,,,,,,,,,,,,,,,,,,,,,,,,,,,,,,,,,,,,,,,,,523.7424719580013,524.0575217910009,524.0575217910009,524.0575217910009,524.0575217910009,524.0575217910009,524.0575217910009,524.0575217910009,524.0575217910009,524.0575217910009,524.0575217910009,,right,0,0.3000646670043352,524.3914747910021,524.3914747910021,524.3914747910021,524.3914747910021,524.3914747910021,524.3914747910021,524.3914747910021,524.3914747910021,524.8800167910013,524.8800167910013,524.9121068329987,,,,,,,,,,,,,,,,,,,,,,,,,,,930202,001,B,2023-07-04_16h22.20.879,vb_task_exp_1,2022.2.5,None,
4,0.8,0.2,0.6,6,right,left,down,up,"(0.2,-0.1)","(-0.2,-0.1)","(0,-0.3)","(0,0.1)","(0.2,0.0)","(-0.2,0.0)","(0.0, -0.2)","(0.0, 0.2)",,,,,,,,,0,1,1,6,22,0,22,0,,,,,,,,,,,,,,,,,,,,,,,,,,,,,,,,,,,,,,,,,,,,,,,,,,,,526.3797757909997,526.7214759159979,526.7214759159979,526.7214759159979,526.7214759159979,526.7214759159979,526.7214759159979,526.7214759159979,526.7214759159979,526.7214759159979,526.7214759159979,,right,0,0.2864531670056749,527.041402916002,527.041402916002,527.041402916002,527.041402916002,527.041402916002,527.041402916002,527.041402916002,527.041402916002,527.5382916250019,527.5382916250019,527.5703589999976,529.0004760000011,529.0004760000011,,,,,,,,,,,,,,,,,,,,,,,,,930202,001,B,2023-07-04_16h22.20.879,vb_task_exp_1,2022.2.5,None,
4,0.8,0.2,0.6,6,right,left,down,up,"(0.2,-0.1)","(-0.2,-0.1)","(0,-0.3)","(0,0.1)","(0.2,0.0)","(-0.2,0.0)","(0.0, -0.2)","(0.0, 0.2)",,,,,,,,,0,1,1,6,23,0,23,0,,,,,,,,,,,,,,,,,,,,,,,,,,,,,,,,,,,,,,,,,,,,,,,,,,,,529.0470986660002,529.3592263749961,529.3592263749961,529.3592263749961,529.3592263749961,529.3592263749961,529.3592263749961,529.3592263749961,529.3592263749961,529.3592263749961,529.3592263749961,,left,0,0.8401899580057943,530.2359365410011,530.2359365410011,530.2359365410011,530.2359365410011,530.2359365410011,530.2359365410011,530.2359365410011,530.2359365410011,530.7308479999992,530.7308479999992,530.7629812079977,532.1970198330018,532.1970198330018,,,,,,,,,,,,,,,,,,,,,,,,,930202,001,B,2023-07-04_16h22.20.879,vb_task_exp_1,2022.2.5,None,
4,0.8,0.2,0.6,6,right,left,down,up,"(0.2,-0.1)","(-0.2,-0.1)","(0,-0.3)","(0,0.1)","(0.2,0.0)","(-0.2,0.0)","(0.0, -0.2)","(0.0, 0.2)",,,,,,,,,0,1,1,6,24,0,24,0,,,,,,,,,,,,,,,,,,,,,,,,,,,,,,,,,,,,,,,,,,,,,,,,,,,,532.2126597079987,532.5307824159972,532.5307824159972,532.5307824159972,532.5307824159972,532.5307824159972,532.5307824159972,532.5307824159972,532.5307824159972,532.5307824159972,532.5307824159972,,left,0,0.7920948329992825,533.3677928329998,533.3677928329998,533.3677928329998,533.3677928329998,533.3677928329998,533.3677928329998,533.3677928329998,533.3677928329998,533.8657637079959,533.8657637079959,533.8978293330001,535.3370385829985,535.3370385829985,,,,,,,,,,,,,,,,,,,,,,,,,930202,001,B,2023-07-04_16h22.20.879,vb_task_exp_1,2022.2.5,None,
4,0.8,0.2,0.6,6,right,left,down,up,"(0.2,-0.1)","(-0.2,-0.1)","(0,-0.3)","(0,0.1)","(0.2,0.0)","(-0.2,0.0)","(0.0, -0.2)","(0.0, 0.2)",,,,,,,,,0,1,1,6,25,0,25,0,,,,,,,,,,,,,,,,,,,,,,,,,,,,,,,,,,,,,,,,,,,,,,,,,,,,535.3463417909952,535.7271614159981,535.7271614159981,535.7271614159981,535.7271614159981,535.7271614159981,535.7271614159981,535.7271614159981,535.7271614159981,535.7271614159981,535.7271614159981,,left,0,0.2775215829969966,536.0421659999993,536.0421659999993,536.0421659999993,536.0421659999993,536.0421659999993,536.0421659999993,536.0421659999993,536.0421659999993,536.532553457997,536.532553457997,536.563595915999,,,,,,,,,,,,,,,,,,,,,,,,,,,930202,001,B,2023-07-04_16h22.20.879,vb_task_exp_1,2022.2.5,None,
4,0.8,0.2,0.6,6,right,left,down,up,"(0.2,-0.1)","(-0.2,-0.1)","(0,-0.3)","(0,0.1)","(0.2,0.0)","(-0.2,0.0)","(0.0, -0.2)","(0.0, 0.2)",,,,,,,,,0,1,1,6,26,0,26,0,,,,,,,,,,,,,,,,,,,,,,,,,,,,,,,,,,,,,,,,,,,,,,,,,,,,538.025612999998,538.3819770409973,538.3819770409973,538.3819770409973,538.3819770409973,538.3819770409973,538.3819770409973,538.3819770409973,538.3819770409973,538.3819770409973,538.3819770409973,,left,0,1.3259549159993185,539.7411996250012,539.7411996250012,539.7411996250012,539.7411996250012,539.7411996250012,539.7411996250012,539.7411996250012,539.7411996250012,540.2316246659975,540.2316246659975,540.2637596659988,,,,,,,,,,,,,,,,,,,,,,,,,,,930202,001,B,2023-07-04_16h22.20.879,vb_task_exp_1,2022.2.5,None,
4,0.8,0.2,0.6,6,right,left,down,up,"(0.2,-0.1)","(-0.2,-0.1)","(0,-0.3)","(0,0.1)","(0.2,0.0)","(-0.2,0.0)","(0.0, -0.2)","(0.0, 0.2)",,,,,,,,,0,1,1,6,27,0,27,0,,,,,,,,,,,,,,,,,,,,,,,,,,,,,,,,,,,,,,,,,,,,,,,,,,,,541.7269804579992,542.058912540997,542.058912540997,542.058912540997,542.058912540997,542.058912540997,542.058912540997,542.058912540997,542.058912540997,542.058912540997,542.058912540997,,left,0,0.410614959000668,542.5076810409955,542.5076810409955,542.5076810409955,542.5076810409955,542.5076810409955,542.5076810409955,542.5076810409955,542.5076810409955,542.9951162500001,542.9951162500001,543.0271484580007,544.4644850830009,544.4644850830009,,,,,,,,,,,,,,,,,,,,,,,,,930202,001,B,2023-07-04_16h22.20.879,vb_task_exp_1,2022.2.5,None,
4,0.8,0.2,0.6,6,right,left,down,up,"(0.2,-0.1)","(-0.2,-0.1)","(0,-0.3)","(0,0.1)","(0.2,0.0)","(-0.2,0.0)","(0.0, -0.2)","(0.0, 0.2)",,,,,,,,,0,1,1,6,28,0,28,0,,,,,,,,,,,,,,,,,,,,,,,,,,,,,,,,,,,,,,,,,,,,,,,,,,,,544.483600790998,544.8577740409964,544.8577740409964,544.8577740409964,544.8577740409964,544.8577740409964,544.8577740409964,544.8577740409964,544.8577740409964,544.8577740409964,544.8577740409964,,left,0,0.24012633300299058,545.1293369159976,545.1293369159976,545.1293369159976,545.1293369159976,545.1293369159976,545.1293369159976,545.1293369159976,545.1293369159976,545.6213094580016,545.6213094580016,545.6533997079969,,,,,,,,,,,,,,,,,,,,,,,,,,,930202,001,B,2023-07-04_16h22.20.879,vb_task_exp_1,2022.2.5,None,
4,0.8,0.2,0.6,6,right,left,down,up,"(0.2,-0.1)","(-0.2,-0.1)","(0,-0.3)","(0,0.1)","(0.2,0.0)","(-0.2,0.0)","(0.0, -0.2)","(0.0, 0.2)",,,,,,,,,0,1,1,6,29,0,29,0,,,,,,,,,,,,,,,,,,,,,,,,,,,,,,,,,,,,,,,,,,,,,,,,,,,,547.1150709159992,547.4364235409957,547.4364235409957,547.4364235409957,547.4364235409957,547.4364235409957,547.4364235409957,547.4364235409957,547.4364235409957,547.4364235409957,547.4364235409957,,left,0,0.25951316700229654,547.7250499579968,547.7250499579968,547.7250499579968,547.7250499579968,547.7250499579968,547.7250499579968,547.7250499579968,547.7250499579968,548.2227311659954,548.2227311659954,548.2546457079952,549.690535916001,549.690535916001,,,,,,,,,,,,,,,,,,,,,,,,,930202,001,B,2023-07-04_16h22.20.879,vb_task_exp_1,2022.2.5,None,
3,0.5,0.5,0.0,0,left,right,down,up,"(-0.2,-0.1)","(0.2,-0.1)","(0,-0.3)","(0,0.1)","(-0.2,0.0)","(0.2,0.0)","(0.0, -0.2)","(0.0, 0.2)",,,,,,,,,0,2,2,3,0,0,0,0,,,,,,,,,,,,,,,,,,,,,,,,,,,,,,,,,,,,,,,,,,,,,,,,,,,560.4471803330016,562.4668319999982,562.815623333001,562.815623333001,562.815623333001,562.815623333001,562.815623333001,562.815623333001,562.815623333001,562.815623333001,562.815623333001,562.815623333001,564.7870427079979,right,0,24.31109279100201,587.1705518750023,587.1705518750023,587.1705518750023,587.1705518750023,587.1705518750023,587.1705518750023,587.1705518750023,587.1705518750023,587.6656097500017,587.6656097500017,587.6979983749989,589.1345508329978,589.1345508329978,549.7410436659993,549.7410436659993,549.7410436659993,0.014707083995745052,549.7410436659993,549.7410436659993,6.0,7.114563124996494,"[0.2275449101796407, 0.272027373823781, 0.037639007698887936, 0.037639007698887936, 0.39349871685201027]","[0.000427715996578272, 0.0029940119760479044, -0.3092386655260907, -0.3092386655260907, -0.2998289136013687]","[1, 1, 1, 1, 1]","[0, 0, 0, 0, 0]","[0, 0, 0, 0, 0]","[4.778041332996509, 6.9926969169973745, 8.466436875001818, 9.093151666995254, 10.72719016699557]",['validate'],1.0,9.645196666999254,,,,,,,,930202,001,B,2023-07-04_16h22.20.879,vb_task_exp_1,2022.2.5,None,
3,0.5,0.5,0.0,0,left,right,down,up,"(-0.2,-0.1)","(0.2,-0.1)","(0,-0.3)","(0,0.1)","(-0.2,0.0)","(0.2,0.0)","(0.0, -0.2)","(0.0, 0.2)",,,,,,,,,0,2,2,3,1,0,1,0,,,,,,,,,,,,,,,,,,,,,,,,,,,,,,,,,,,,,,,,,,,,,,,,,,,,589.1393032499982,589.5010933750018,589.5010933750018,589.5010933750018,589.5010933750018,589.5010933750018,589.5010933750018,589.5010933750018,589.5010933750018,589.5010933750018,589.5010933750018,,right,0,0.27155129099992337,589.8092121250011,589.8092121250011,589.8092121250011,589.8092121250011,589.8092121250011,589.8092121250011,589.8092121250011,589.8092121250011,590.2938326250005,590.2938326250005,590.3258580830006,,,,,,,,,,,,,,,,,,,,,,,,,,,930202,001,B,2023-07-04_16h22.20.879,vb_task_exp_1,2022.2.5,None,
3,0.5,0.5,0.0,0,left,right,down,up,"(-0.2,-0.1)","(0.2,-0.1)","(0,-0.3)","(0,0.1)","(-0.2,0.0)","(0.2,0.0)","(0.0, -0.2)","(0.0, 0.2)",,,,,,,,,0,2,2,3,2,0,2,0,,,,,,,,,,,,,,,,,,,,,,,,,,,,,,,,,,,,,,,,,,,,,,,,,,,,591.7937377909984,592.1162104579998,592.1162104579998,592.1162104579998,592.1162104579998,592.1162104579998,592.1162104579998,592.1162104579998,592.1162104579998,592.1162104579998,592.1162104579998,,right,0,0.4342567499988945,592.5846260830003,592.5846260830003,592.5846260830003,592.5846260830003,592.5846260830003,592.5846260830003,592.5846260830003,592.5846260830003,593.075758166,593.075758166,593.1077910000022,,,,,,,,,,,,,,,,,,,,,,,,,,,930202,001,B,2023-07-04_16h22.20.879,vb_task_exp_1,2022.2.5,None,
3,0.5,0.5,0.0,0,left,right,down,up,"(-0.2,-0.1)","(0.2,-0.1)","(0,-0.3)","(0,0.1)","(-0.2,0.0)","(0.2,0.0)","(0.0, -0.2)","(0.0, 0.2)",,,,,,,,,0,2,2,3,3,0,3,0,,,,,,,,,,,,,,,,,,,,,,,,,,,,,,,,,,,,,,,,,,,,,,,,,,,,594.5763967909952,594.9258296249973,594.9258296249973,594.9258296249973,594.9258296249973,594.9258296249973,594.9258296249973,594.9258296249973,594.9258296249973,594.9258296249973,594.9258296249973,,right,0,0.25557608300005086,595.2286679999961,595.2286679999961,595.2286679999961,595.2286679999961,595.2286679999961,595.2286679999961,595.2286679999961,595.2286679999961,595.7223284159991,595.7223284159991,595.7541567500011,,,,,,,,,,,,,,,,,,,,,,,,,,,930202,001,B,2023-07-04_16h22.20.879,vb_task_exp_1,2022.2.5,None,
3,0.5,0.5,0.0,0,left,right,down,up,"(-0.2,-0.1)","(0.2,-0.1)","(0,-0.3)","(0,0.1)","(-0.2,0.0)","(0.2,0.0)","(0.0, -0.2)","(0.0, 0.2)",,,,,,,,,0,2,2,3,4,0,4,0,,,,,,,,,,,,,,,,,,,,,,,,,,,,,,,,,,,,,,,,,,,,,,,,,,,,597.2164324159967,597.5505977079956,597.5505977079956,597.5505977079956,597.5505977079956,597.5505977079956,597.5505977079956,597.5505977079956,597.5505977079956,597.5505977079956,597.5505977079956,,right,0,0.3255761670006905,597.9235656660021,597.9235656660021,597.9235656660021,597.9235656660021,597.9235656660021,597.9235656660021,597.9235656660021,597.9235656660021,598.4114717909979,598.4114717909979,598.4434004159993,,,,,,,,,,,,,,,,,,,,,,,,,,,930202,001,B,2023-07-04_16h22.20.879,vb_task_exp_1,2022.2.5,None,
3,0.5,0.5,0.0,0,left,right,down,up,"(-0.2,-0.1)","(0.2,-0.1)","(0,-0.3)","(0,0.1)","(-0.2,0.0)","(0.2,0.0)","(0.0, -0.2)","(0.0, 0.2)",,,,,,,,,0,2,2,3,5,0,5,0,,,,,,,,,,,,,,,,,,,,,,,,,,,,,,,,,,,,,,,,,,,,,,,,,,,,599.9037715829982,600.2344714579958,600.2344714579958,600.2344714579958,600.2344714579958,600.2344714579958,600.2344714579958,600.2344714579958,600.2344714579958,600.2344714579958,600.2344714579958,,right,0,0.24396400000114227,600.5125058330013,600.5125058330013,600.5125058330013,600.5125058330013,600.5125058330013,600.5125058330013,600.5125058330013,600.5125058330013,600.9992068749998,600.9992068749998,601.030124500001,,,,,,,,,,,,,,,,,,,,,,,,,,,930202,001,B,2023-07-04_16h22.20.879,vb_task_exp_1,2022.2.5,None,
3,0.5,0.5,0.0,0,left,right,down,up,"(-0.2,-0.1)","(0.2,-0.1)","(0,-0.3)","(0,0.1)","(-0.2,0.0)","(0.2,0.0)","(0.0, -0.2)","(0.0, 0.2)",,,,,,,,,0,2,2,3,6,0,6,0,,,,,,,,,,,,,,,,,,,,,,,,,,,,,,,,,,,,,,,,,,,,,,,,,,,,602.4989090410018,602.8040497499969,602.8040497499969,602.8040497499969,602.8040497499969,602.8040497499969,602.8040497499969,602.8040497499969,602.8040497499969,602.8040497499969,602.8040497499969,,right,0,0.24988262500119163,603.0830060829976,603.0830060829976,603.0830060829976,603.0830060829976,603.0830060829976,603.0830060829976,603.0830060829976,603.0830060829976,603.5789642500022,603.5789642500022,603.6108048329988,,,,,,,,,,,,,,,,,,,,,,,,,,,930202,001,B,2023-07-04_16h22.20.879,vb_task_exp_1,2022.2.5,None,
3,0.5,0.5,0.0,0,left,right,down,up,"(-0.2,-0.1)","(0.2,-0.1)","(0,-0.3)","(0,0.1)","(-0.2,0.0)","(0.2,0.0)","(0.0, -0.2)","(0.0, 0.2)",,,,,,,,,0,2,2,3,7,0,7,0,,,,,,,,,,,,,,,,,,,,,,,,,,,,,,,,,,,,,,,,,,,,,,,,,,,,605.0727826250004,605.4028292910007,605.4028292910007,605.4028292910007,605.4028292910007,605.4028292910007,605.4028292910007,605.4028292910007,605.4028292910007,605.4028292910007,605.4028292910007,,right,0,0.25320550000469666,605.6943521659996,605.6943521659996,605.6943521659996,605.6943521659996,605.6943521659996,605.6943521659996,605.6943521659996,605.6943521659996,606.1887220829958,606.1887220829958,606.220676375,607.6524662500015,607.6524662500015,,,,,,,,,,,,,,,,,,,,,,,,,930202,001,B,2023-07-04_16h22.20.879,vb_task_exp_1,2022.2.5,None,
3,0.5,0.5,0.0,0,left,right,down,up,"(-0.2,-0.1)","(0.2,-0.1)","(0,-0.3)","(0,0.1)","(-0.2,0.0)","(0.2,0.0)","(0.0, -0.2)","(0.0, 0.2)",,,,,,,,,0,2,2,3,8,0,8,0,,,,,,,,,,,,,,,,,,,,,,,,,,,,,,,,,,,,,,,,,,,,,,,,,,,,607.6800027499994,607.9957616659958,607.9957616659958,607.9957616659958,607.9957616659958,607.9957616659958,607.9957616659958,607.9957616659958,607.9957616659958,607.9957616659958,607.9957616659958,,right,0,0.34910866700374754,608.3765009999988,608.3765009999988,608.3765009999988,608.3765009999988,608.3765009999988,608.3765009999988,608.3765009999988,608.3765009999988,608.8612544999996,608.8612544999996,608.8933259159967,,,,,,,,,,,,,,,,,,,,,,,,,,,930202,001,B,2023-07-04_16h22.20.879,vb_task_exp_1,2022.2.5,None,
3,0.5,0.5,0.0,0,left,right,down,up,"(-0.2,-0.1)","(0.2,-0.1)","(0,-0.3)","(0,0.1)","(-0.2,0.0)","(0.2,0.0)","(0.0, -0.2)","(0.0, 0.2)",,,,,,,,,0,2,2,3,9,0,9,0,,,,,,,,,,,,,,,,,,,,,,,,,,,,,,,,,,,,,,,,,,,,,,,,,,,,610.359398749999,610.6912264159982,610.6912264159982,610.6912264159982,610.6912264159982,610.6912264159982,610.6912264159982,610.6912264159982,610.6912264159982,610.6912264159982,610.6912264159982,,left,0,0.25720408300549025,610.9790077500002,610.9790077500002,610.9790077500002,610.9790077500002,610.9790077500002,610.9790077500002,610.9790077500002,610.9790077500002,611.4707446249959,611.4707446249959,611.5028193329999,612.9386263749984,612.9386263749984,,,,,,,,,,,,,,,,,,,,,,,,,930202,001,B,2023-07-04_16h22.20.879,vb_task_exp_1,2022.2.5,None,
3,0.5,0.5,0.0,0,left,right,down,up,"(-0.2,-0.1)","(0.2,-0.1)","(0,-0.3)","(0,0.1)","(-0.2,0.0)","(0.2,0.0)","(0.0, -0.2)","(0.0, 0.2)",,,,,,,,,0,2,2,3,10,0,10,0,,,,,,,,,,,,,,,,,,,,,,,,,,,,,,,,,,,,,,,,,,,,,,,,,,,,612.9644734159956,613.2583874159973,613.2583874159973,613.2583874159973,613.2583874159973,613.2583874159973,613.2583874159973,613.2583874159973,613.2583874159973,613.2583874159973,613.2583874159973,,left,0,0.27618604200688424,613.5788656660006,613.5788656660006,613.5788656660006,613.5788656660006,613.5788656660006,613.5788656660006,613.5788656660006,613.5788656660006,614.079899874996,614.079899874996,614.1119708749975,,,,,,,,,,,,,,,,,,,,,,,,,,,930202,001,B,2023-07-04_16h22.20.879,vb_task_exp_1,2022.2.5,None,
3,0.5,0.5,0.0,0,left,right,down,up,"(-0.2,-0.1)","(0.2,-0.1)","(0,-0.3)","(0,0.1)","(-0.2,0.0)","(0.2,0.0)","(0.0, -0.2)","(0.0, 0.2)",,,,,,,,,0,2,2,3,11,0,11,0,,,,,,,,,,,,,,,,,,,,,,,,,,,,,,,,,,,,,,,,,,,,,,,,,,,,615.554178665996,615.883051249999,615.883051249999,615.883051249999,615.883051249999,615.883051249999,615.883051249999,615.883051249999,615.883051249999,615.883051249999,615.883051249999,,left,0,0.22594312500586966,616.1452772080011,616.1452772080011,616.1452772080011,616.1452772080011,616.1452772080011,616.1452772080011,616.1452772080011,616.1452772080011,616.6364853749983,616.6364853749983,616.6685219999999,,,,,,,,,,,,,,,,,,,,,,,,,,,930202,001,B,2023-07-04_16h22.20.879,vb_task_exp_1,2022.2.5,None,
3,0.5,0.5,0.0,0,left,right,down,up,"(-0.2,-0.1)","(0.2,-0.1)","(0,-0.3)","(0,0.1)","(-0.2,0.0)","(0.2,0.0)","(0.0, -0.2)","(0.0, 0.2)",,,,,,,,,0,2,2,3,12,0,12,0,,,,,,,,,,,,,,,,,,,,,,,,,,,,,,,,,,,,,,,,,,,,,,,,,,,,618.1355332499952,618.4616799159994,618.4616799159994,618.4616799159994,618.4616799159994,618.4616799159994,618.4616799159994,618.4616799159994,618.4616799159994,618.4616799159994,618.4616799159994,,left,0,0.25701416700030677,618.7515405410013,618.7515405410013,618.7515405410013,618.7515405410013,618.7515405410013,618.7515405410013,618.7515405410013,618.7515405410013,619.2481676659954,619.2481676659954,619.2799183749958,620.7165574999963,620.7165574999963,,,,,,,,,,,,,,,,,,,,,,,,,930202,001,B,2023-07-04_16h22.20.879,vb_task_exp_1,2022.2.5,None,
3,0.5,0.5,0.0,0,left,right,down,up,"(-0.2,-0.1)","(0.2,-0.1)","(0,-0.3)","(0,0.1)","(-0.2,0.0)","(0.2,0.0)","(0.0, -0.2)","(0.0, 0.2)",,,,,,,,,0,2,2,3,13,0,13,0,,,,,,,,,,,,,,,,,,,,,,,,,,,,,,,,,,,,,,,,,,,,,,,,,,,,620.7302201659986,621.0905037499979,621.0905037499979,621.0905037499979,621.0905037499979,621.0905037499979,621.0905037499979,621.0905037499979,621.0905037499979,621.0905037499979,621.0905037499979,,left,0,0.02757995799765922,621.1512444580003,621.1512444580003,621.1512444580003,621.1512444580003,621.1512444580003,621.1512444580003,621.1512444580003,621.1512444580003,621.6406628330005,621.6406628330005,621.6724884579962,,,,,,,,,,,,,,,,,,,,,,,,,,,930202,001,B,2023-07-04_16h22.20.879,vb_task_exp_1,2022.2.5,None,
3,0.5,0.5,0.0,0,left,right,down,up,"(-0.2,-0.1)","(0.2,-0.1)","(0,-0.3)","(0,0.1)","(-0.2,0.0)","(0.2,0.0)","(0.0, -0.2)","(0.0, 0.2)",,,,,,,,,0,2,2,3,14,0,14,0,,,,,,,,,,,,,,,,,,,,,,,,,,,,,,,,,,,,,,,,,,,,,,,,,,,,623.1404167500004,623.5055933330004,623.5055933330004,623.5055933330004,623.5055933330004,623.5055933330004,623.5055933330004,623.5055933330004,623.5055933330004,623.5055933330004,623.5055933330004,,left,0,0.3060752500023227,623.8522250829992,623.8522250829992,623.8522250829992,623.8522250829992,623.8522250829992,623.8522250829992,623.8522250829992,623.8522250829992,624.3394252079961,624.3394252079961,624.3713639999987,,,,,,,,,,,,,,,,,,,,,,,,,,,930202,001,B,2023-07-04_16h22.20.879,vb_task_exp_1,2022.2.5,None,
3,0.5,0.5,0.0,0,left,right,down,up,"(-0.2,-0.1)","(0.2,-0.1)","(0,-0.3)","(0,0.1)","(-0.2,0.0)","(0.2,0.0)","(0.0, -0.2)","(0.0, 0.2)",,,,,,,,,0,2,2,3,15,0,15,0,,,,,,,,,,,,,,,,,,,,,,,,,,,,,,,,,,,,,,,,,,,,,,,,,,,,625.8354217910019,626.1609419160013,626.1609419160013,626.1609419160013,626.1609419160013,626.1609419160013,626.1609419160013,626.1609419160013,626.1609419160013,626.1609419160013,626.1609419160013,,left,0,0.2337954169997829,626.4272706249976,626.4272706249976,626.4272706249976,626.4272706249976,626.4272706249976,626.4272706249976,626.4272706249976,626.4272706249976,626.9161929580005,626.9161929580005,626.948007125,,,,,,,,,,,,,,,,,,,,,,,,,,,930202,001,B,2023-07-04_16h22.20.879,vb_task_exp_1,2022.2.5,None,
3,0.5,0.5,0.0,0,left,right,down,up,"(-0.2,-0.1)","(0.2,-0.1)","(0,-0.3)","(0,0.1)","(-0.2,0.0)","(0.2,0.0)","(0.0, -0.2)","(0.0, 0.2)",,,,,,,,,0,2,2,3,16,0,16,0,,,,,,,,,,,,,,,,,,,,,,,,,,,,,,,,,,,,,,,,,,,,,,,,,,,,628.4125304580011,628.7433907079976,628.7433907079976,628.7433907079976,628.7433907079976,628.7433907079976,628.7433907079976,628.7433907079976,628.7433907079976,628.7433907079976,628.7433907079976,,left,0,0.37092500000289874,629.1531280830022,629.1531280830022,629.1531280830022,629.1531280830022,629.1531280830022,629.1531280830022,629.1531280830022,629.1531280830022,629.647421499998,629.647421499998,629.6794010829981,631.1159810829995,631.1159810829995,,,,,,,,,,,,,,,,,,,,,,,,,930202,001,B,2023-07-04_16h22.20.879,vb_task_exp_1,2022.2.5,None,
3,0.5,0.5,0.0,0,left,right,down,up,"(-0.2,-0.1)","(0.2,-0.1)","(0,-0.3)","(0,0.1)","(-0.2,0.0)","(0.2,0.0)","(0.0, -0.2)","(0.0, 0.2)",,,,,,,,,0,2,2,3,17,0,17,0,,,,,,,,,,,,,,,,,,,,,,,,,,,,,,,,,,,,,,,,,,,,,,,,,,,,631.1317687909977,631.4375352909992,631.4375352909992,631.4375352909992,631.4375352909992,631.4375352909992,631.4375352909992,631.4375352909992,631.4375352909992,631.4375352909992,631.4375352909992,,left,0,0.20657500000379514,631.6778938749994,631.6778938749994,631.6778938749994,631.6778938749994,631.6778938749994,631.6778938749994,631.6778938749994,631.6778938749994,632.1657755409979,632.1657755409979,632.1967758749961,,,,,,,,,,,,,,,,,,,,,,,,,,,930202,001,B,2023-07-04_16h22.20.879,vb_task_exp_1,2022.2.5,None,
3,0.5,0.5,0.0,0,left,right,down,up,"(-0.2,-0.1)","(0.2,-0.1)","(0,-0.3)","(0,0.1)","(-0.2,0.0)","(0.2,0.0)","(0.0, -0.2)","(0.0, 0.2)",,,,,,,,,0,2,2,3,18,0,18,0,,,,,,,,,,,,,,,,,,,,,,,,,,,,,,,,,,,,,,,,,,,,,,,,,,,,633.6626536249969,634.0065938749976,634.0065938749976,634.0065938749976,634.0065938749976,634.0065938749976,634.0065938749976,634.0065938749976,634.0065938749976,634.0065938749976,634.0065938749976,,left,0,0.44822212500002934,634.4893239579978,634.4893239579978,634.4893239579978,634.4893239579978,634.4893239579978,634.4893239579978,634.4893239579978,634.4893239579978,634.9835671659966,634.9835671659966,635.0155989159975,636.4520164159985,636.4520164159985,,,,,,,,,,,,,,,,,,,,,,,,,930202,001,B,2023-07-04_16h22.20.879,vb_task_exp_1,2022.2.5,None,
3,0.5,0.5,0.0,0,left,right,down,up,"(-0.2,-0.1)","(0.2,-0.1)","(0,-0.3)","(0,0.1)","(-0.2,0.0)","(0.2,0.0)","(0.0, -0.2)","(0.0, 0.2)",,,,,,,,,0,2,2,3,19,0,19,0,,,,,,,,,,,,,,,,,,,,,,,,,,,,,,,,,,,,,,,,,,,,,,,,,,,,636.477713332999,636.7959585829958,636.7959585829958,636.7959585829958,636.7959585829958,636.7959585829958,636.7959585829958,636.7959585829958,636.7959585829958,636.7959585829958,636.7959585829958,,left,0,0.36778808400413254,637.2092447499963,637.2092447499963,637.2092447499963,637.2092447499963,637.2092447499963,637.2092447499963,637.2092447499963,637.2092447499963,637.6976714159973,637.6976714159973,637.7297032909992,,,,,,,,,,,,,,,,,,,,,,,,,,,930202,001,B,2023-07-04_16h22.20.879,vb_task_exp_1,2022.2.5,None,
3,0.5,0.5,0.0,0,left,right,down,up,"(-0.2,-0.1)","(0.2,-0.1)","(0,-0.3)","(0,0.1)","(-0.2,0.0)","(0.2,0.0)","(0.0, -0.2)","(0.0, 0.2)",,,,,,,,,0,2,2,3,20,0,20,0,,,,,,,,,,,,,,,,,,,,,,,,,,,,,,,,,,,,,,,,,,,,,,,,,,,,639.1925926249969,639.5162583749989,639.5162583749989,639.5162583749989,639.5162583749989,639.5162583749989,639.5162583749989,639.5162583749989,639.5162583749989,639.5162583749989,639.5162583749989,,left,0,0.31575641699600965,639.8707837499969,639.8707837499969,639.8707837499969,639.8707837499969,639.8707837499969,639.8707837499969,639.8707837499969,639.8707837499969,640.3612184579979,640.3612184579979,640.3932788329985,,,,,,,,,,,,,,,,,,,,,,,,,,,930202,001,B,2023-07-04_16h22.20.879,vb_task_exp_1,2022.2.5,None,
3,0.5,0.5,0.0,0,left,right,down,up,"(-0.2,-0.1)","(0.2,-0.1)","(0,-0.3)","(0,0.1)","(-0.2,0.0)","(0.2,0.0)","(0.0, -0.2)","(0.0, 0.2)",,,,,,,,,0,2,2,3,21,0,21,0,,,,,,,,,,,,,,,,,,,,,,,,,,,,,,,,,,,,,,,,,,,,,,,,,,,,641.8585970829954,642.1822319999992,642.1822319999992,642.1822319999992,642.1822319999992,642.1822319999992,642.1822319999992,642.1822319999992,642.1822319999992,642.1822319999992,642.1822319999992,,left,0,0.24529687500034925,642.4597245409968,642.4597245409968,642.4597245409968,642.4597245409968,642.4597245409968,642.4597245409968,642.4597245409968,642.4597245409968,642.9498092909998,642.9498092909998,642.9819218749981,644.4195193749983,644.4195193749983,,,,,,,,,,,,,,,,,,,,,,,,,930202,001,B,2023-07-04_16h22.20.879,vb_task_exp_1,2022.2.5,None,
3,0.5,0.5,0.0,0,left,right,down,up,"(-0.2,-0.1)","(0.2,-0.1)","(0,-0.3)","(0,0.1)","(-0.2,0.0)","(0.2,0.0)","(0.0, -0.2)","(0.0, 0.2)",,,,,,,,,0,2,2,3,22,0,22,0,,,,,,,,,,,,,,,,,,,,,,,,,,,,,,,,,,,,,,,,,,,,,,,,,,,,644.4441562079955,644.7620766249966,644.7620766249966,644.7620766249966,644.7620766249966,644.7620766249966,644.7620766249966,644.7620766249966,644.7620766249966,644.7620766249966,644.7620766249966,,left,0,0.41075795899814693,645.2075753749959,645.2075753749959,645.2075753749959,645.2075753749959,645.2075753749959,645.2075753749959,645.2075753749959,645.2075753749959,645.6944993329962,645.6944993329962,645.7265007909955,,,,,,,,,,,,,,,,,,,,,,,,,,,930202,001,B,2023-07-04_16h22.20.879,vb_task_exp_1,2022.2.5,None,
3,0.5,0.5,0.0,0,left,right,down,up,"(-0.2,-0.1)","(0.2,-0.1)","(0,-0.3)","(0,0.1)","(-0.2,0.0)","(0.2,0.0)","(0.0, -0.2)","(0.0, 0.2)",,,,,,,,,0,2,2,3,23,0,23,0,,,,,,,,,,,,,,,,,,,,,,,,,,,,,,,,,,,,,,,,,,,,,,,,,,,,647.193316500001,647.5235483750002,647.5235483750002,647.5235483750002,647.5235483750002,647.5235483750002,647.5235483750002,647.5235483750002,647.5235483750002,647.5235483750002,647.5235483750002,,left,0,0.2670357079987298,647.8234987499964,647.8234987499964,647.8234987499964,647.8234987499964,647.8234987499964,647.8234987499964,647.8234987499964,647.8234987499964,648.3140802909984,648.3140802909984,648.3461874999994,649.7831234999976,649.7831234999976,,,,,,,,,,,,,,,,,,,,,,,,,930202,001,B,2023-07-04_16h22.20.879,vb_task_exp_1,2022.2.5,None,
3,0.5,0.5,0.0,0,left,right,down,up,"(-0.2,-0.1)","(0.2,-0.1)","(0,-0.3)","(0,0.1)","(-0.2,0.0)","(0.2,0.0)","(0.0, -0.2)","(0.0, 0.2)",,,,,,,,,0,2,2,3,24,0,24,0,,,,,,,,,,,,,,,,,,,,,,,,,,,,,,,,,,,,,,,,,,,,,,,,,,,,649.7973157079978,650.1241279999958,650.1241279999958,650.1241279999958,650.1241279999958,650.1241279999958,650.1241279999958,650.1241279999958,650.1241279999958,650.1241279999958,650.1241279999958,,left,0,0.2409338750076131,650.3978795829971,650.3978795829971,650.3978795829971,650.3978795829971,650.3978795829971,650.3978795829971,650.3978795829971,650.3978795829971,650.8900369159965,650.8900369159965,650.9220893329984,652.361246374996,652.361246374996,,,,,,,,,,,,,,,,,,,,,,,,,930202,001,B,2023-07-04_16h22.20.879,vb_task_exp_1,2022.2.5,None,
3,0.5,0.5,0.0,0,left,right,down,up,"(-0.2,-0.1)","(0.2,-0.1)","(0,-0.3)","(0,0.1)","(-0.2,0.0)","(0.2,0.0)","(0.0, -0.2)","(0.0, 0.2)",,,,,,,,,0,2,2,3,25,0,25,0,,,,,,,,,,,,,,,,,,,,,,,,,,,,,,,,,,,,,,,,,,,,,,,,,,,,652.3819132909994,652.7811435830008,652.7811435830008,652.7811435830008,652.7811435830008,652.7811435830008,652.7811435830008,652.7811435830008,652.7811435830008,652.7811435830008,652.7811435830008,,left,0,0.11796254100045189,652.9325609160005,652.9325609160005,652.9325609160005,652.9325609160005,652.9325609160005,652.9325609160005,652.9325609160005,652.9325609160005,653.4245078329986,653.4245078329986,653.456445666001,,,,,,,,,,,,,,,,,,,,,,,,,,,930202,001,B,2023-07-04_16h22.20.879,vb_task_exp_1,2022.2.5,None,
3,0.5,0.5,0.0,0,left,right,down,up,"(-0.2,-0.1)","(0.2,-0.1)","(0,-0.3)","(0,0.1)","(-0.2,0.0)","(0.2,0.0)","(0.0, -0.2)","(0.0, 0.2)",,,,,,,,,0,2,2,3,26,0,26,0,,,,,,,,,,,,,,,,,,,,,,,,,,,,,,,,,,,,,,,,,,,,,,,,,,,,654.9241518330018,655.2199989579967,655.2199989579967,655.2199989579967,655.2199989579967,655.2199989579967,655.2199989579967,655.2199989579967,655.2199989579967,655.2199989579967,655.2199989579967,,left,0,0.27482637500361307,655.5262562499993,655.5262562499993,655.5262562499993,655.5262562499993,655.5262562499993,655.5262562499993,655.5262562499993,655.5262562499993,656.0106432079992,656.0106432079992,656.0426880829982,,,,,,,,,,,,,,,,,,,,,,,,,,,930202,001,B,2023-07-04_16h22.20.879,vb_task_exp_1,2022.2.5,None,
3,0.5,0.5,0.0,0,left,right,down,up,"(-0.2,-0.1)","(0.2,-0.1)","(0,-0.3)","(0,0.1)","(-0.2,0.0)","(0.2,0.0)","(0.0, -0.2)","(0.0, 0.2)",,,,,,,,,0,2,2,3,27,0,27,0,,,,,,,,,,,,,,,,,,,,,,,,,,,,,,,,,,,,,,,,,,,,,,,,,,,,657.5138145000019,657.846848000001,657.846848000001,657.846848000001,657.846848000001,657.846848000001,657.846848000001,657.846848000001,657.846848000001,657.846848000001,657.846848000001,,left,0,0.24702850000176113,658.1307193749963,658.1307193749963,658.1307193749963,658.1307193749963,658.1307193749963,658.1307193749963,658.1307193749963,658.1307193749963,658.6179699579952,658.6179699579952,658.6499946249969,,,,,,,,,,,,,,,,,,,,,,,,,,,930202,001,B,2023-07-04_16h22.20.879,vb_task_exp_1,2022.2.5,None,
3,0.5,0.5,0.0,0,left,right,down,up,"(-0.2,-0.1)","(0.2,-0.1)","(0,-0.3)","(0,0.1)","(-0.2,0.0)","(0.2,0.0)","(0.0, -0.2)","(0.0, 0.2)",,,,,,,,,0,2,2,3,28,0,28,0,,,,,,,,,,,,,,,,,,,,,,,,,,,,,,,,,,,,,,,,,,,,,,,,,,,,660.1182387500012,660.4249382080015,660.4249382080015,660.4249382080015,660.4249382080015,660.4249382080015,660.4249382080015,660.4249382080015,660.4249382080015,660.4249382080015,660.4249382080015,,right,0,0.5649552079994464,661.0208248749987,661.0208248749987,661.0208248749987,661.0208248749987,661.0208248749987,661.0208248749987,661.0208248749987,661.0208248749987,661.507370583,661.507370583,661.5393584580015,,,,,,,,,,,,,,,,,,,,,,,,,,,930202,001,B,2023-07-04_16h22.20.879,vb_task_exp_1,2022.2.5,None,
3,0.5,0.5,0.0,0,left,right,down,up,"(-0.2,-0.1)","(0.2,-0.1)","(0,-0.3)","(0,0.1)","(-0.2,0.0)","(0.2,0.0)","(0.0, -0.2)","(0.0, 0.2)",,,,,,,,,0,2,2,3,29,0,29,0,,,,,,,,,,,,,,,,,,,,,,,,,,,,,,,,,,,,,,,,,,,,,,,,,,,,663.0025449999957,663.3249817499964,663.3249817499964,663.3249817499964,663.3249817499964,663.3249817499964,663.3249817499964,663.3249817499964,663.3249817499964,663.3249817499964,663.3249817499964,,right,0,0.5811501249991124,663.9408334999971,663.9408334999971,663.9408334999971,663.9408334999971,663.9408334999971,663.9408334999971,663.9408334999971,663.9408334999971,664.4277747910019,664.4277747910019,664.459632207996,,,,,,,,,,,,,,,,,,,,,,,,,,,930202,001,B,2023-07-04_16h22.20.879,vb_task_exp_1,2022.2.5,None,
2,0.5,0.5,0.0,0,right,left,up,down,"(0.2,-0.1)","(-0.2,-0.1)","(0,0.1)","(0,-0.3)","(0.2,0.0)","(-0.2,0.0)","(0.0, 0.2)","(0.0,-0.2)",,,,,,,,,0,3,3,3,0,0,0,0,,,,,,,,,,,,,,,,,,,,,,,,,,,,,,,,,,,,,,,,,,,,,,,,,,,679.6623808329969,681.6725864580003,682.0301497499968,682.0301497499968,682.0301497499968,682.0301497499968,682.0301497499968,682.0301497499968,682.0301497499968,682.0301497499968,682.0301497499968,682.0301497499968,684.0030809160016,left,0,3.5170417909976095,685.5920883329964,685.5920883329964,685.5920883329964,685.5920883329964,685.5920883329964,685.5920883329964,685.5920883329964,685.5920883329964,686.0796409579998,686.0796409579998,686.111825,687.5467313749978,687.5467313749978,665.9610052079952,665.9610052079952,665.9610052079952,0.019375084004423115,665.9610052079952,665.9610052079952,5.0,5.94722579199879,"[0.2249786142001711, 0.0213857998289136, 0.02480752780153978, 0.009409751924721984, 0.4234388366124893]","[-0.00213857998289136, -0.3075278015397776, -0.306672369546621, -0.29897348160821213, -0.3006843455945252]","[1, 1, 1, 1, 1]","[0, 0, 0, 0, 0]","[0, 0, 0, 0, 0]","[5.853581374998612, 8.064337333002186, 8.916473416997178, 11.29587754199747, 13.722997249999025]",['validate'],1.0,11.517241292000108,,,,,,,681.6725864580003,930202,001,B,2023-07-04_16h22.20.879,vb_task_exp_1,2022.2.5,None,
2,0.5,0.5,0.0,0,right,left,up,down,"(0.2,-0.1)","(-0.2,-0.1)","(0,0.1)","(0,-0.3)","(0.2,0.0)","(-0.2,0.0)","(0.0, 0.2)","(0.0,-0.2)",,,,,,,,,0,3,3,3,1,0,1,0,,,,,,,,,,,,,,,,,,,,,,,,,,,,,,,,,,,,,,,,,,,,,,,,,,,,687.5613478329979,687.8773951659969,687.8773951659969,687.8773951659969,687.8773951659969,687.8773951659969,687.8773951659969,687.8773951659969,687.8773951659969,687.8773951659969,687.8773951659969,,left,0,0.3028447079996113,688.2147751250013,688.2147751250013,688.2147751250013,688.2147751250013,688.2147751250013,688.2147751250013,688.2147751250013,688.2147751250013,688.7092029999985,688.7092029999985,688.7412511660004,690.1804856660019,690.1804856660019,,,,,,,,,,,,,,,,,,,,,,,,,930202,001,B,2023-07-04_16h22.20.879,vb_task_exp_1,2022.2.5,None,
2,0.5,0.5,0.0,0,right,left,up,down,"(0.2,-0.1)","(-0.2,-0.1)","(0,0.1)","(0,-0.3)","(0.2,0.0)","(-0.2,0.0)","(0.0, 0.2)","(0.0,-0.2)",,,,,,,,,0,3,3,3,2,0,2,0,,,,,,,,,,,,,,,,,,,,,,,,,,,,,,,,,,,,,,,,,,,,,,,,,,,,690.1909593749951,690.518287040999,690.518287040999,690.518287040999,690.518287040999,690.518287040999,690.518287040999,690.518287040999,690.518287040999,690.518287040999,690.518287040999,,left,0,0.36981437500799075,690.9231635830001,690.9231635830001,690.9231635830001,690.9231635830001,690.9231635830001,690.9231635830001,690.9231635830001,690.9231635830001,691.4072733329958,691.4072733329958,691.439297541001,,,,,,,,,,,,,,,,,,,,,,,,,,,930202,001,B,2023-07-04_16h22.20.879,vb_task_exp_1,2022.2.5,None,
2,0.5,0.5,0.0,0,right,left,up,down,"(0.2,-0.1)","(-0.2,-0.1)","(0,0.1)","(0,-0.3)","(0.2,0.0)","(-0.2,0.0)","(0.0, 0.2)","(0.0,-0.2)",,,,,,,,,0,3,3,3,3,0,3,0,,,,,,,,,,,,,,,,,,,,,,,,,,,,,,,,,,,,,,,,,,,,,,,,,,,,692.9083593749965,693.2352236250008,693.2352236250008,693.2352236250008,693.2352236250008,693.2352236250008,693.2352236250008,693.2352236250008,693.2352236250008,693.2352236250008,693.2352236250008,,left,0,0.3247899170019082,693.5964794159954,693.5964794159954,693.5964794159954,693.5964794159954,693.5964794159954,693.5964794159954,693.5964794159954,693.5964794159954,694.0885633329963,694.0885633329963,694.120548040999,,,,,,,,,,,,,,,,,,,,,,,,,,,930202,001,B,2023-07-04_16h22.20.879,vb_task_exp_1,2022.2.5,None,
2,0.5,0.5,0.0,0,right,left,up,down,"(0.2,-0.1)","(-0.2,-0.1)","(0,0.1)","(0,-0.3)","(0.2,0.0)","(-0.2,0.0)","(0.0, 0.2)","(0.0,-0.2)",,,,,,,,,0,3,3,3,4,0,4,0,,,,,,,,,,,,,,,,,,,,,,,,,,,,,,,,,,,,,,,,,,,,,,,,,,,,695.5872517079988,695.8983903330009,695.8983903330009,695.8983903330009,695.8983903330009,695.8983903330009,695.8983903330009,695.8983903330009,695.8983903330009,695.8983903330009,695.8983903330009,,left,0,0.7149649580023834,696.6479177079964,696.6479177079964,696.6479177079964,696.6479177079964,696.6479177079964,696.6479177079964,696.6479177079964,696.6479177079964,697.1361145830015,697.1361145830015,697.1681385409975,,,,,,,,,,,,,,,,,,,,,,,,,,,930202,001,B,2023-07-04_16h22.20.879,vb_task_exp_1,2022.2.5,None,
2,0.5,0.5,0.0,0,right,left,up,down,"(0.2,-0.1)","(-0.2,-0.1)","(0,0.1)","(0,-0.3)","(0.2,0.0)","(-0.2,0.0)","(0.0, 0.2)","(0.0,-0.2)",,,,,,,,,0,3,3,3,5,0,5,0,,,,,,,,,,,,,,,,,,,,,,,,,,,,,,,,,,,,,,,,,,,,,,,,,,,,698.6344863749982,698.9499481660023,698.9499481660023,698.9499481660023,698.9499481660023,698.9499481660023,698.9499481660023,698.9499481660023,698.9499481660023,698.9499481660023,698.9499481660023,,left,0,0.5019703330035554,699.4817750000002,699.4817750000002,699.4817750000002,699.4817750000002,699.4817750000002,699.4817750000002,699.4817750000002,699.4817750000002,699.9699132909955,699.9699132909955,700.0019164999976,,,,,,,,,,,,,,,,,,,,,,,,,,,930202,001,B,2023-07-04_16h22.20.879,vb_task_exp_1,2022.2.5,None,
2,0.5,0.5,0.0,0,right,left,up,down,"(0.2,-0.1)","(-0.2,-0.1)","(0,0.1)","(0,-0.3)","(0.2,0.0)","(-0.2,0.0)","(0.0, 0.2)","(0.0,-0.2)",,,,,,,,,0,3,3,3,6,0,6,0,,,,,,,,,,,,,,,,,,,,,,,,,,,,,,,,,,,,,,,,,,,,,,,,,,,,701.4664028749976,701.800088582997,701.800088582997,701.800088582997,701.800088582997,701.800088582997,701.800088582997,701.800088582997,701.800088582997,701.800088582997,701.800088582997,,left,0,0.47826275000261376,702.3150172909955,702.3150172909955,702.3150172909955,702.3150172909955,702.3150172909955,702.3150172909955,702.3150172909955,702.3150172909955,702.8025443329971,702.8025443329971,702.8344364579971,,,,,,,,,,,,,,,,,,,,,,,,,,,930202,001,B,2023-07-04_16h22.20.879,vb_task_exp_1,2022.2.5,None,
2,0.5,0.5,0.0,0,right,left,up,down,"(0.2,-0.1)","(-0.2,-0.1)","(0,0.1)","(0,-0.3)","(0.2,0.0)","(-0.2,0.0)","(0.0, 0.2)","(0.0,-0.2)",,,,,,,,,0,3,3,3,7,0,7,0,,,,,,,,,,,,,,,,,,,,,,,,,,,,,,,,,,,,,,,,,,,,,,,,,,,,704.3012235829956,704.6142204159987,704.6142204159987,704.6142204159987,704.6142204159987,704.6142204159987,704.6142204159987,704.6142204159987,704.6142204159987,704.6142204159987,704.6142204159987,,left,0,0.29669033300160663,704.9446569159991,704.9446569159991,704.9446569159991,704.9446569159991,704.9446569159991,704.9446569159991,704.9446569159991,704.9446569159991,705.4360069579998,705.4360069579998,705.4680799580019,,,,,,,,,,,,,,,,,,,,,,,,,,,930202,001,B,2023-07-04_16h22.20.879,vb_task_exp_1,2022.2.5,None,
2,0.5,0.5,0.0,0,right,left,up,down,"(0.2,-0.1)","(-0.2,-0.1)","(0,0.1)","(0,-0.3)","(0.2,0.0)","(-0.2,0.0)","(0.0, 0.2)","(0.0,-0.2)",,,,,,,,,0,3,3,3,8,0,8,0,,,,,,,,,,,,,,,,,,,,,,,,,,,,,,,,,,,,,,,,,,,,,,,,,,,,706.9334897910012,707.2411654160023,707.2411654160023,707.2411654160023,707.2411654160023,707.2411654160023,707.2411654160023,707.2411654160023,707.2411654160023,707.2411654160023,707.2411654160023,,left,0,0.34295183300127974,707.6203482080018,707.6203482080018,707.6203482080018,707.6203482080018,707.6203482080018,707.6203482080018,707.6203482080018,707.6203482080018,708.1076447910018,708.1076447910018,708.1396683330022,,,,,,,,,,,,,,,,,,,,,,,,,,,930202,001,B,2023-07-04_16h22.20.879,vb_task_exp_1,2022.2.5,None,
2,0.5,0.5,0.0,0,right,left,up,down,"(0.2,-0.1)","(-0.2,-0.1)","(0,0.1)","(0,-0.3)","(0.2,0.0)","(-0.2,0.0)","(0.0, 0.2)","(0.0,-0.2)",,,,,,,,,0,3,3,3,9,0,9,0,,,,,,,,,,,,,,,,,,,,,,,,,,,,,,,,,,,,,,,,,,,,,,,,,,,,709.6090430830009,709.962028957998,709.962028957998,709.962028957998,709.962028957998,709.962028957998,709.962028957998,709.962028957998,709.962028957998,709.962028957998,709.962028957998,,left,0,0.4710871249990305,710.4646787910024,710.4646787910024,710.4646787910024,710.4646787910024,710.4646787910024,710.4646787910024,710.4646787910024,710.4646787910024,710.9561065000016,710.9561065000016,710.9894220409988,712.4311302080023,712.4311302080023,,,,,,,,,,,,,,,,,,,,,,,,,930202,001,B,2023-07-04_16h22.20.879,vb_task_exp_1,2022.2.5,None,
2,0.5,0.5,0.0,0,right,left,up,down,"(0.2,-0.1)","(-0.2,-0.1)","(0,0.1)","(0,-0.3)","(0.2,0.0)","(-0.2,0.0)","(0.0, 0.2)","(0.0,-0.2)",,,,,,,,,0,3,3,3,10,0,10,0,,,,,,,,,,,,,,,,,,,,,,,,,,,,,,,,,,,,,,,,,,,,,,,,,,,,712.4410869579951,712.7281051659957,712.7281051659957,712.7281051659957,712.7281051659957,712.7281051659957,712.7281051659957,712.7281051659957,712.7281051659957,712.7281051659957,712.7281051659957,,left,0,0.26439391700114356,713.0221055000002,713.0221055000002,713.0221055000002,713.0221055000002,713.0221055000002,713.0221055000002,713.0221055000002,713.0221055000002,713.5180597079961,713.5180597079961,713.5499112079997,714.9907365409963,714.9907365409963,,,,,,,,,,,,,,,,,,,,,,,,,930202,001,B,2023-07-04_16h22.20.879,vb_task_exp_1,2022.2.5,None,
2,0.5,0.5,0.0,0,right,left,up,down,"(0.2,-0.1)","(-0.2,-0.1)","(0,0.1)","(0,-0.3)","(0.2,0.0)","(-0.2,0.0)","(0.0, 0.2)","(0.0,-0.2)",,,,,,,,,0,3,3,3,11,0,11,0,,,,,,,,,,,,,,,,,,,,,,,,,,,,,,,,,,,,,,,,,,,,,,,,,,,,715.0013191659964,715.338028582999,715.338028582999,715.338028582999,715.338028582999,715.338028582999,715.338028582999,715.338028582999,715.338028582999,715.338028582999,715.338028582999,,left,0,0.7213286249971134,716.1036982500009,716.1036982500009,716.1036982500009,716.1036982500009,716.1036982500009,716.1036982500009,716.1036982500009,716.1036982500009,716.5900564580006,716.5900564580006,716.622096207997,,,,,,,,,,,,,,,,,,,,,,,,,,,930202,001,B,2023-07-04_16h22.20.879,vb_task_exp_1,2022.2.5,None,
2,0.5,0.5,0.0,0,right,left,up,down,"(0.2,-0.1)","(-0.2,-0.1)","(0,0.1)","(0,-0.3)","(0.2,0.0)","(-0.2,0.0)","(0.0, 0.2)","(0.0,-0.2)",,,,,,,,,0,3,3,3,12,0,12,0,,,,,,,,,,,,,,,,,,,,,,,,,,,,,,,,,,,,,,,,,,,,,,,,,,,,718.0889772500013,718.4469962910007,718.4469962910007,718.4469962910007,718.4469962910007,718.4469962910007,718.4469962910007,718.4469962910007,718.4469962910007,718.4469962910007,718.4469962910007,,right,0,1.5965522499973304,720.0773284579991,720.0773284579991,720.0773284579991,720.0773284579991,720.0773284579991,720.0773284579991,720.0773284579991,720.0773284579991,720.5611873329981,720.5611873329981,720.5931891250002,,,,,,,,,,,,,,,,,,,,,,,,,,,930202,001,B,2023-07-04_16h22.20.879,vb_task_exp_1,2022.2.5,None,
2,0.5,0.5,0.0,0,right,left,up,down,"(0.2,-0.1)","(-0.2,-0.1)","(0,0.1)","(0,-0.3)","(0.2,0.0)","(-0.2,0.0)","(0.0, 0.2)","(0.0,-0.2)",,,,,,,,,0,3,3,3,13,0,13,0,,,,,,,,,,,,,,,,,,,,,,,,,,,,,,,,,,,,,,,,,,,,,,,,,,,,722.0577331249951,722.3808614579975,722.3808614579975,722.3808614579975,722.3808614579975,722.3808614579975,722.3808614579975,722.3808614579975,722.3808614579975,722.3808614579975,722.3808614579975,,right,0,0.36938704100612085,722.7823649999991,722.7823649999991,722.7823649999991,722.7823649999991,722.7823649999991,722.7823649999991,722.7823649999991,722.7823649999991,723.2704726250013,723.2704726250013,723.3024374160013,,,,,,,,,,,,,,,,,,,,,,,,,,,930202,001,B,2023-07-04_16h22.20.879,vb_task_exp_1,2022.2.5,None,
2,0.5,0.5,0.0,0,right,left,up,down,"(0.2,-0.1)","(-0.2,-0.1)","(0,0.1)","(0,-0.3)","(0.2,0.0)","(-0.2,0.0)","(0.0, 0.2)","(0.0,-0.2)",,,,,,,,,0,3,3,3,14,0,14,0,,,,,,,,,,,,,,,,,,,,,,,,,,,,,,,,,,,,,,,,,,,,,,,,,,,,724.7615408330021,725.0781864999954,725.0781864999954,725.0781864999954,725.0781864999954,725.0781864999954,725.0781864999954,725.0781864999954,725.0781864999954,725.0781864999954,725.0781864999954,,right,0,0.4684255000029225,725.582188458,725.582188458,725.582188458,725.582188458,725.582188458,725.582188458,725.582188458,725.582188458,726.0724311660015,726.0724311660015,726.1044550829974,,,,,,,,,,,,,,,,,,,,,,,,,,,930202,001,B,2023-07-04_16h22.20.879,vb_task_exp_1,2022.2.5,None,
2,0.5,0.5,0.0,0,right,left,up,down,"(0.2,-0.1)","(-0.2,-0.1)","(0,0.1)","(0,-0.3)","(0.2,0.0)","(-0.2,0.0)","(0.0, 0.2)","(0.0,-0.2)",,,,,,,,,0,3,3,3,15,0,15,0,,,,,,,,,,,,,,,,,,,,,,,,,,,,,,,,,,,,,,,,,,,,,,,,,,,,727.5683472500023,727.8947516659973,727.8947516659973,727.8947516659973,727.8947516659973,727.8947516659973,727.8947516659973,727.8947516659973,727.8947516659973,727.8947516659973,727.8947516659973,,right,0,0.34388104200479575,728.2696832500005,728.2696832500005,728.2696832500005,728.2696832500005,728.2696832500005,728.2696832500005,728.2696832500005,728.2696832500005,728.7590353330015,728.7590353330015,728.7910754159966,,,,,,,,,,,,,,,,,,,,,,,,,,,930202,001,B,2023-07-04_16h22.20.879,vb_task_exp_1,2022.2.5,None,
2,0.5,0.5,0.0,0,right,left,up,down,"(0.2,-0.1)","(-0.2,-0.1)","(0,0.1)","(0,-0.3)","(0.2,0.0)","(-0.2,0.0)","(0.0, 0.2)","(0.0,-0.2)",,,,,,,,,0,3,3,3,16,0,16,0,,,,,,,,,,,,,,,,,,,,,,,,,,,,,,,,,,,,,,,,,,,,,,,,,,,,730.253757790997,730.6119059159973,730.6119059159973,730.6119059159973,730.6119059159973,730.6119059159973,730.6119059159973,730.6119059159973,730.6119059159973,730.6119059159973,730.6119059159973,,right,0,0.2229455830020015,730.8653330410016,730.8653330410016,730.8653330410016,730.8653330410016,730.8653330410016,730.8653330410016,730.8653330410016,730.8653330410016,731.3535885000019,731.3535885000019,731.3856481249968,,,,,,,,,,,,,,,,,,,,,,,,,,,930202,001,B,2023-07-04_16h22.20.879,vb_task_exp_1,2022.2.5,None,
2,0.5,0.5,0.0,0,right,left,up,down,"(0.2,-0.1)","(-0.2,-0.1)","(0,0.1)","(0,-0.3)","(0.2,0.0)","(-0.2,0.0)","(0.0, 0.2)","(0.0,-0.2)",,,,,,,,,0,3,3,3,17,0,17,0,,,,,,,,,,,,,,,,,,,,,,,,,,,,,,,,,,,,,,,,,,,,,,,,,,,,732.8523518329966,733.2295722499985,733.2295722499985,733.2295722499985,733.2295722499985,733.2295722499985,733.2295722499985,733.2295722499985,733.2295722499985,733.2295722499985,733.2295722499985,,right,0,0.2433421250025276,733.5033730409996,733.5033730409996,733.5033730409996,733.5033730409996,733.5033730409996,733.5033730409996,733.5033730409996,733.5033730409996,733.9967724160015,733.9967724160015,734.0287296249953,735.4667911249999,735.4667911249999,,,,,,,,,,,,,,,,,,,,,,,,,930202,001,B,2023-07-04_16h22.20.879,vb_task_exp_1,2022.2.5,None,
2,0.5,0.5,0.0,0,right,left,up,down,"(0.2,-0.1)","(-0.2,-0.1)","(0,0.1)","(0,-0.3)","(0.2,0.0)","(-0.2,0.0)","(0.0, 0.2)","(0.0,-0.2)",,,,,,,,,0,3,3,3,18,0,18,0,,,,,,,,,,,,,,,,,,,,,,,,,,,,,,,,,,,,,,,,,,,,,,,,,,,,735.4825155829967,735.7986157499981,735.7986157499981,735.7986157499981,735.7986157499981,735.7986157499981,735.7986157499981,735.7986157499981,735.7986157499981,735.7986157499981,735.7986157499981,,right,0,0.3201198330061743,736.1513726249977,736.1513726249977,736.1513726249977,736.1513726249977,736.1513726249977,736.1513726249977,736.1513726249977,736.1513726249977,736.6393602909957,736.6393602909957,736.6716252080005,738.1135591659986,738.1135591659986,,,,,,,,,,,,,,,,,,,,,,,,,930202,001,B,2023-07-04_16h22.20.879,vb_task_exp_1,2022.2.5,None,
2,0.5,0.5,0.0,0,right,left,up,down,"(0.2,-0.1)","(-0.2,-0.1)","(0,0.1)","(0,-0.3)","(0.2,0.0)","(-0.2,0.0)","(0.0, 0.2)","(0.0,-0.2)",,,,,,,,,0,3,3,3,19,0,19,0,,,,,,,,,,,,,,,,,,,,,,,,,,,,,,,,,,,,,,,,,,,,,,,,,,,,738.1280509999997,738.4860339160005,738.4860339160005,738.4860339160005,738.4860339160005,738.4860339160005,738.4860339160005,738.4860339160005,738.4860339160005,738.4860339160005,738.4860339160005,,right,0,0.5901917919982225,739.111993749997,739.111993749997,739.111993749997,739.111993749997,739.111993749997,739.111993749997,739.111993749997,739.111993749997,739.6036058329992,739.6036058329992,739.6357332499974,741.078212458,741.078212458,,,,,,,,,,,,,,,,,,,,,,,,,930202,001,B,2023-07-04_16h22.20.879,vb_task_exp_1,2022.2.5,None,
2,0.5,0.5,0.0,0,right,left,up,down,"(0.2,-0.1)","(-0.2,-0.1)","(0,0.1)","(0,-0.3)","(0.2,0.0)","(-0.2,0.0)","(0.0, 0.2)","(0.0,-0.2)",,,,,,,,,0,3,3,3,20,0,20,0,,,,,,,,,,,,,,,,,,,,,,,,,,,,,,,,,,,,,,,,,,,,,,,,,,,,741.088627707999,741.4017753750013,741.4017753750013,741.4017753750013,741.4017753750013,741.4017753750013,741.4017753750013,741.4017753750013,741.4017753750013,741.4017753750013,741.4017753750013,,right,0,0.2794889159995364,741.7166343329955,741.7166343329955,741.7166343329955,741.7166343329955,741.7166343329955,741.7166343329955,741.7166343329955,741.7166343329955,742.2121389999957,742.2121389999957,742.244428207996,743.6806250410009,743.6806250410009,,,,,,,,,,,,,,,,,,,,,,,,,930202,001,B,2023-07-04_16h22.20.879,vb_task_exp_1,2022.2.5,None,
2,0.5,0.5,0.0,0,right,left,up,down,"(0.2,-0.1)","(-0.2,-0.1)","(0,0.1)","(0,-0.3)","(0.2,0.0)","(-0.2,0.0)","(0.0, 0.2)","(0.0,-0.2)",,,,,,,,,0,3,3,3,21,0,21,0,,,,,,,,,,,,,,,,,,,,,,,,,,,,,,,,,,,,,,,,,,,,,,,,,,,,743.695638833,744.0384382499979,744.0384382499979,744.0384382499979,744.0384382499979,744.0384382499979,744.0384382499979,744.0384382499979,744.0384382499979,744.0384382499979,744.0384382499979,,right,0,0.30112791600549826,744.3729319159975,744.3729319159975,744.3729319159975,744.3729319159975,744.3729319159975,744.3729319159975,744.3729319159975,744.3729319159975,744.8800593330016,744.8800593330016,744.9121977079994,746.3444847079954,746.3444847079954,,,,,,,,,,,,,,,,,,,,,,,,,930202,001,B,2023-07-04_16h22.20.879,vb_task_exp_1,2022.2.5,None,
2,0.5,0.5,0.0,0,right,left,up,down,"(0.2,-0.1)","(-0.2,-0.1)","(0,0.1)","(0,-0.3)","(0.2,0.0)","(-0.2,0.0)","(0.0, 0.2)","(0.0,-0.2)",,,,,,,,,0,3,3,3,22,0,22,0,,,,,,,,,,,,,,,,,,,,,,,,,,,,,,,,,,,,,,,,,,,,,,,,,,,,746.354620332997,746.6942353330014,746.6942353330014,746.6942353330014,746.6942353330014,746.6942353330014,746.6942353330014,746.6942353330014,746.6942353330014,746.6942353330014,746.6942353330014,,right,0,0.19900195900117978,746.9360307079987,746.9360307079987,746.9360307079987,746.9360307079987,746.9360307079987,746.9360307079987,746.9360307079987,746.9360307079987,747.4317299999966,747.4317299999966,747.4638204579969,748.8985215409994,748.8985215409994,,,,,,,,,,,,,,,,,,,,,,,,,930202,001,B,2023-07-04_16h22.20.879,vb_task_exp_1,2022.2.5,None,
2,0.5,0.5,0.0,0,right,left,up,down,"(0.2,-0.1)","(-0.2,-0.1)","(0,0.1)","(0,-0.3)","(0.2,0.0)","(-0.2,0.0)","(0.0, 0.2)","(0.0,-0.2)",,,,,,,,,0,3,3,3,23,0,23,0,,,,,,,,,,,,,,,,,,,,,,,,,,,,,,,,,,,,,,,,,,,,,,,,,,,,748.9196918329981,749.2391894159955,749.2391894159955,749.2391894159955,749.2391894159955,749.2391894159955,749.2391894159955,749.2391894159955,749.2391894159955,749.2391894159955,749.2391894159955,,right,0,0.1510926670016488,749.4254679579972,749.4254679579972,749.4254679579972,749.4254679579972,749.4254679579972,749.4254679579972,749.4254679579972,749.4254679579972,749.9241948330018,749.9241948330018,749.9562414159955,751.3925151660005,751.3925151660005,,,,,,,,,,,,,,,,,,,,,,,,,930202,001,B,2023-07-04_16h22.20.879,vb_task_exp_1,2022.2.5,None,
2,0.5,0.5,0.0,0,right,left,up,down,"(0.2,-0.1)","(-0.2,-0.1)","(0,0.1)","(0,-0.3)","(0.2,0.0)","(-0.2,0.0)","(0.0, 0.2)","(0.0,-0.2)",,,,,,,,,0,3,3,3,24,0,24,0,,,,,,,,,,,,,,,,,,,,,,,,,,,,,,,,,,,,,,,,,,,,,,,,,,,,751.4031341250011,751.7269719579999,751.7269719579999,751.7269719579999,751.7269719579999,751.7269719579999,751.7269719579999,751.7269719579999,751.7269719579999,751.7269719579999,751.7269719579999,,right,0,0.26699783300136914,752.0302915409993,752.0302915409993,752.0302915409993,752.0302915409993,752.0302915409993,752.0302915409993,752.0302915409993,752.0302915409993,752.5164930829997,752.5164930829997,752.5483274579965,,,,,,,,,,,,,,,,,,,,,,,,,,,930202,001,B,2023-07-04_16h22.20.879,vb_task_exp_1,2022.2.5,None,
2,0.5,0.5,0.0,0,right,left,up,down,"(0.2,-0.1)","(-0.2,-0.1)","(0,0.1)","(0,-0.3)","(0.2,0.0)","(-0.2,0.0)","(0.0, 0.2)","(0.0,-0.2)",,,,,,,,,0,3,3,3,25,0,25,0,,,,,,,,,,,,,,,,,,,,,,,,,,,,,,,,,,,,,,,,,,,,,,,,,,,,754.0166357080016,754.341104375002,754.341104375002,754.341104375002,754.341104375002,754.341104375002,754.341104375002,754.341104375002,754.341104375002,754.341104375002,754.341104375002,,right,0,0.29117387500446057,754.6613606249957,754.6613606249957,754.6613606249957,754.6613606249957,754.6613606249957,754.6613606249957,754.6613606249957,754.6613606249957,755.1485803749965,755.1485803749965,755.1796891659978,,,,,,,,,,,,,,,,,,,,,,,,,,,930202,001,B,2023-07-04_16h22.20.879,vb_task_exp_1,2022.2.5,None,
2,0.5,0.5,0.0,0,right,left,up,down,"(0.2,-0.1)","(-0.2,-0.1)","(0,0.1)","(0,-0.3)","(0.2,0.0)","(-0.2,0.0)","(0.0, 0.2)","(0.0,-0.2)",,,,,,,,,0,3,3,3,26,0,26,0,,,,,,,,,,,,,,,,,,,,,,,,,,,,,,,,,,,,,,,,,,,,,,,,,,,,756.6451795829998,756.9640635830001,756.9640635830001,756.9640635830001,756.9640635830001,756.9640635830001,756.9640635830001,756.9640635830001,756.9640635830001,756.9640635830001,756.9640635830001,,right,0,0.48342841699923156,757.4819771659968,757.4819771659968,757.4819771659968,757.4819771659968,757.4819771659968,757.4819771659968,757.4819771659968,757.4819771659968,757.9702658749957,757.9702658749957,758.0023381249994,,,,,,,,,,,,,,,,,,,,,,,,,,,930202,001,B,2023-07-04_16h22.20.879,vb_task_exp_1,2022.2.5,None,
2,0.5,0.5,0.0,0,right,left,up,down,"(0.2,-0.1)","(-0.2,-0.1)","(0,0.1)","(0,-0.3)","(0.2,0.0)","(-0.2,0.0)","(0.0, 0.2)","(0.0,-0.2)",,,,,,,,,0,3,3,3,27,0,27,0,,,,,,,,,,,,,,,,,,,,,,,,,,,,,,,,,,,,,,,,,,,,,,,,,,,,759.4680792079962,759.8307740410019,759.8307740410019,759.8307740410019,759.8307740410019,759.8307740410019,759.8307740410019,759.8307740410019,759.8307740410019,759.8307740410019,759.8307740410019,,right,0,0.36715879100665916,760.2331183329952,760.2331183329952,760.2331183329952,760.2331183329952,760.2331183329952,760.2331183329952,760.2331183329952,760.2331183329952,760.7257823749969,760.7257823749969,760.7576484160018,762.1944634999963,762.1944634999963,,,,,,,,,,,,,,,,,,,,,,,,,930202,001,B,2023-07-04_16h22.20.879,vb_task_exp_1,2022.2.5,None,
2,0.5,0.5,0.0,0,right,left,up,down,"(0.2,-0.1)","(-0.2,-0.1)","(0,0.1)","(0,-0.3)","(0.2,0.0)","(-0.2,0.0)","(0.0, 0.2)","(0.0,-0.2)",,,,,,,,,0,3,3,3,28,0,28,0,,,,,,,,,,,,,,,,,,,,,,,,,,,,,,,,,,,,,,,,,,,,,,,,,,,,762.2150226660015,762.5718499579962,762.5718499579962,762.5718499579962,762.5718499579962,762.5718499579962,762.5718499579962,762.5718499579962,762.5718499579962,762.5718499579962,762.5718499579962,,right,0,0.28916424999624724,762.9003662909963,762.9003662909963,762.9003662909963,762.9003662909963,762.9003662909963,762.9003662909963,762.9003662909963,762.9003662909963,763.3855653749997,763.3855653749997,763.4175818329968,,,,,,,,,,,,,,,,,,,,,,,,,,,930202,001,B,2023-07-04_16h22.20.879,vb_task_exp_1,2022.2.5,None,
2,0.5,0.5,0.0,0,right,left,up,down,"(0.2,-0.1)","(-0.2,-0.1)","(0,0.1)","(0,-0.3)","(0.2,0.0)","(-0.2,0.0)","(0.0, 0.2)","(0.0,-0.2)",,,,,,,,,0,3,3,3,29,0,29,0,,,,,,,,,,,,,,,,,,,,,,,,,,,,,,,,,,,,,,,,,,,,,,,,,,,,764.8822435409966,765.1698577499992,765.1698577499992,765.1698577499992,765.1698577499992,765.1698577499992,765.1698577499992,765.1698577499992,765.1698577499992,765.1698577499992,765.1698577499992,,right,0,0.304188416004763,765.5050012909996,765.5050012909996,765.5050012909996,765.5050012909996,765.5050012909996,765.5050012909996,765.5050012909996,765.5050012909996,765.9917643329973,765.9917643329973,766.0238154159961,,,,,,,,,,,,,,,,,,,,,,,,,,,930202,001,B,2023-07-04_16h22.20.879,vb_task_exp_1,2022.2.5,None,
3,0.5,0.5,0.0,0,left,right,down,up,"(-0.2,-0.1)","(0.2,-0.1)","(0,-0.3)","(0,0.1)","(-0.2,0.0)","(0.2,0.0)","(0.0, -0.2)","(0.0, 0.2)",,,,,,,,,0,4,4,4,0,0,0,0,,,,,,,,,,,,,,,,,,,,,,,,,,,,,,,,,,,,,,,,,,,,,,,,,,,779.438862832998,781.4551854579986,781.8183986250006,781.8183986250006,781.8183986250006,781.8183986250006,781.8183986250006,781.8183986250006,781.8183986250006,781.8183986250006,781.8183986250006,781.8183986250006,783.7899394580018,right,0,7.65482200000406,789.5186930409982,789.5186930409982,789.5186930409982,789.5186930409982,789.5186930409982,789.5186930409982,789.5186930409982,789.5186930409982,790.0069438329956,790.0069438329956,790.0399892909991,,,767.5296099159968,767.5296099159968,767.5296099159968,0.024489124996762257,767.5296099159968,767.5296099159968,5.0,3.577800457998819,"[0.2292557741659538, -0.05303678357570573, 0.05645851154833191, 0.05218135158254919, 0.05132591958939264, 0.4354148845166809]","[-0.000427715996578272, -0.30496150556030793, -0.30496150556030793, -0.30496150556030793, -0.30496150556030793, -0.3023952095808383]","[1, 1, 1, 1, 1, 1]","[0, 0, 0, 0, 0, 0]","[0, 0, 0, 0, 0, 0]","[3.400143917002424, 7.237992374997702, 9.426687459003006, 9.93313499999931, 10.440681542000675, 11.930682500002149]",['validate'],1.0,10.922085207996133,,,,,,,781.4551854579986,930202,001,B,2023-07-04_16h22.20.879,vb_task_exp_1,2022.2.5,None,
3,0.5,0.5,0.0,0,left,right,down,up,"(-0.2,-0.1)","(0.2,-0.1)","(0,-0.3)","(0,0.1)","(-0.2,0.0)","(0.2,0.0)","(0.0, -0.2)","(0.0, 0.2)",,,,,,,,,0,4,4,4,1,0,1,0,,,,,,,,,,,,,,,,,,,,,,,,,,,,,,,,,,,,,,,,,,,,,,,,,,,,791.498227707998,791.8466104159961,791.8466104159961,791.8466104159961,791.8466104159961,791.8466104159961,791.8466104159961,791.8466104159961,791.8466104159961,791.8466104159961,791.8466104159961,,right,0,0.26821104200644186,792.1619379580006,792.1619379580006,792.1619379580006,792.1619379580006,792.1619379580006,792.1619379580006,792.1619379580006,792.1619379580006,792.6478795829971,792.6478795829971,792.6799965409955,,,,,,,,,,,,,,,,,,,,,,,,,,,930202,001,B,2023-07-04_16h22.20.879,vb_task_exp_1,2022.2.5,None,
3,0.5,0.5,0.0,0,left,right,down,up,"(-0.2,-0.1)","(0.2,-0.1)","(0,-0.3)","(0,0.1)","(-0.2,0.0)","(0.2,0.0)","(0.0, -0.2)","(0.0, 0.2)",,,,,,,,,0,4,4,4,2,0,2,0,,,,,,,,,,,,,,,,,,,,,,,,,,,,,,,,,,,,,,,,,,,,,,,,,,,,794.1456257499958,794.4348824580011,794.4348824580011,794.4348824580011,794.4348824580011,794.4348824580011,794.4348824580011,794.4348824580011,794.4348824580011,794.4348824580011,794.4348824580011,,right,0,0.12860291700053494,794.5934973749972,794.5934973749972,794.5934973749972,794.5934973749972,794.5934973749972,794.5934973749972,794.5934973749972,794.5934973749972,795.0832379159983,795.0832379159983,795.1150919159991,,,,,,,,,,,,,,,,,,,,,,,,,,,930202,001,B,2023-07-04_16h22.20.879,vb_task_exp_1,2022.2.5,None,
3,0.5,0.5,0.0,0,left,right,down,up,"(-0.2,-0.1)","(0.2,-0.1)","(0,-0.3)","(0,0.1)","(-0.2,0.0)","(0.2,0.0)","(0.0, -0.2)","(0.0, 0.2)",,,,,,,,,0,4,4,4,3,0,3,0,,,,,,,,,,,,,,,,,,,,,,,,,,,,,,,,,,,,,,,,,,,,,,,,,,,,796.5838698329972,796.9027570409962,796.9027570409962,796.9027570409962,796.9027570409962,796.9027570409962,796.9027570409962,796.9027570409962,796.9027570409962,796.9027570409962,796.9027570409962,,right,0,0.33561412500421284,797.2738332079971,797.2738332079971,797.2738332079971,797.2738332079971,797.2738332079971,797.2738332079971,797.2738332079971,797.2738332079971,797.7699490410014,797.7699490410014,797.801497708002,799.2384853330004,799.2384853330004,,,,,,,,,,,,,,,,,,,,,,,,,930202,001,B,2023-07-04_16h22.20.879,vb_task_exp_1,2022.2.5,None,
